"success","timeout","failed_images","failed_audio","failed_video","trial_type","trial_index","time_elapsed","internal_node_id","main_cue","condition","cue_guess","view_history","rt","stimulus","response","test_trial","correct_choice","prompt_label","choices","suffix","gender","view","is_fixation","attention_check","correct","typed_response","expected_label","task","correct_response"
"true","false","[]","[]","[]","preload","0","9","0.0-0.0","view","long","None","","","","","","","","","","","","","","","","","",""
"","","","","","instructions","1","4606","0.0-1.0","view","long","None","[{""page_index"":0,""viewing_time"":4596}]","4596","","","","","","","","","","","","","","","",""
"","","","","","instructions","2","6637","0.0-2.0","view","long","None","[{""page_index"":0,""viewing_time"":2030}]","2030","","","","","","","","","","","","","","","",""
"","","","","","html-button-response","3","21220","0.0-3.0-0.0","view","long","None","","14580","
          <style>
            .quote-box {
              border: 2px solid #ccc;
              padding: 16px;
              margin: 20px auto;
              border-radius: 8px;
              background-color: #ffffff;
              text-align: center;
            }
            .stimuli-image {
              display: block;
              margin: 10px auto;
              max-height: 150px;
            }
            .button-spacing {
              margin-top: 30px;
            }
          </style>

          <div style=""display: flex; align-items: center;"">
            <div style=""flex: 1; padding-right: 20px;"">
              <div class=""quote-box"">
                <p>This is called <strong>Dan</strong>.</p>
                <img src=""stimuli/bokchoy_adult_01.png"" class=""stimuli-image"">
              </div>

              <p style=""text-align: center;"">What is this called?</p>

              <div class=""quote-box"">
                <img src=""stimuli/bokchoy_child_01.png"" class=""stimuli-image"">
              </div>

              <div class=""button-spacing""></div>
            </div>

            <div style=""flex-shrink: 0; width: 180px; height: 250px; display: flex; align-items: center; justify-content: center;"">
            <img src=""interlocutor/child_female_03_side.png"" style=""width: 100%; height: 100%; object-fit: contain;"" />
            </div>
        ","0","false","Danrul","Dan","[""Danrik"",""Danrul""]","rul","female","side","false","false","false","","","",""
"","","","","","html-keyboard-response","4","22224","0.0-3.0-1.0-0.0","view","long","None","","null","<p style='color:red; font-size: 24px;'>Incorrect! Please try again.</p>","null","","","","","","","","","","","","","",""
"","","","","","html-button-response","5","23104","0.0-3.1-0.1","view","long","None","","877","
          <style>
            .quote-box {
              border: 2px solid #ccc;
              padding: 16px;
              margin: 20px auto;
              border-radius: 8px;
              background-color: #ffffff;
              text-align: center;
            }
            .stimuli-image {
              display: block;
              margin: 10px auto;
              max-height: 150px;
            }
            .button-spacing {
              margin-top: 30px;
            }
          </style>

          <div style=""display: flex; align-items: center;"">
            <div style=""flex: 1; padding-right: 20px;"">
              <div class=""quote-box"">
                <p>This is called <strong>Dan</strong>.</p>
                <img src=""stimuli/bokchoy_adult_01.png"" class=""stimuli-image"">
              </div>

              <p style=""text-align: center;"">What is this called?</p>

              <div class=""quote-box"">
                <img src=""stimuli/bokchoy_child_01.png"" class=""stimuli-image"">
              </div>

              <div class=""button-spacing""></div>
            </div>

            <div style=""flex-shrink: 0; width: 180px; height: 250px; display: flex; align-items: center; justify-content: center;"">
            <img src=""interlocutor/child_female_03_side.png"" style=""width: 100%; height: 100%; object-fit: contain;"" />
            </div>
        ","1","false","Danrul","Dan","[""Danrik"",""Danrul""]","rul","female","side","false","false","true","","","",""
"","","","","","html-keyboard-response","6","23606","0.0-4.0","view","long","None","","null","<div style=""font-size: 48px;"">+</div>","null","","","","","","","","true","","","","","",""
"","","","","","html-button-response","7","29937","0.0-5.0-0.0","view","long","None","","6329","
          <style>
            .quote-box {
              border: 2px solid #ccc;
              padding: 16px;
              margin: 20px auto;
              border-radius: 8px;
              background-color: #ffffff;
              text-align: center;
            }
            .stimuli-image {
              display: block;
              margin: 10px auto;
              max-height: 150px;
            }
            .button-spacing {
              margin-top: 30px;
            }
          </style>

          <div style=""display: flex; align-items: center;"">
            <div style=""flex: 1; padding-right: 20px;"">
              <div class=""quote-box"">
                <p>This is called <strong>Fon</strong>.</p>
                <img src=""stimuli/drawer.png"" class=""stimuli-image"">
              </div>

              <p style=""text-align: center;"">What is this called?</p>

              <div class=""quote-box"">
                <img src=""stimuli/warddrobe.jpg"" class=""stimuli-image"">
              </div>

              <div class=""button-spacing""></div>
            </div>

            <div style=""flex-shrink: 0; width: 180px; height: 250px; display: flex; align-items: center; justify-content: center;"">
            <img src=""interlocutor/child_female.png"" style=""width: 100%; height: 100%; object-fit: contain;"" />
            </div>
        ","1","false","Fonrik","Fon","[""Fonrik"",""Fonrul""]","rik","female","front","false","false","false","","","",""
"","","","","","html-keyboard-response","8","30940","0.0-5.0-1.0-0.0","view","long","None","","null","<p style='color:red; font-size: 24px;'>Incorrect! Please try again.</p>","null","","","","","","","","","","","","","",""
"","","","","","html-button-response","9","31521","0.0-5.1-0.1","view","long","None","","578","
          <style>
            .quote-box {
              border: 2px solid #ccc;
              padding: 16px;
              margin: 20px auto;
              border-radius: 8px;
              background-color: #ffffff;
              text-align: center;
            }
            .stimuli-image {
              display: block;
              margin: 10px auto;
              max-height: 150px;
            }
            .button-spacing {
              margin-top: 30px;
            }
          </style>

          <div style=""display: flex; align-items: center;"">
            <div style=""flex: 1; padding-right: 20px;"">
              <div class=""quote-box"">
                <p>This is called <strong>Fon</strong>.</p>
                <img src=""stimuli/drawer.png"" class=""stimuli-image"">
              </div>

              <p style=""text-align: center;"">What is this called?</p>

              <div class=""quote-box"">
                <img src=""stimuli/warddrobe.jpg"" class=""stimuli-image"">
              </div>

              <div class=""button-spacing""></div>
            </div>

            <div style=""flex-shrink: 0; width: 180px; height: 250px; display: flex; align-items: center; justify-content: center;"">
            <img src=""interlocutor/child_female.png"" style=""width: 100%; height: 100%; object-fit: contain;"" />
            </div>
        ","0","false","Fonrik","Fon","[""Fonrik"",""Fonrul""]","rik","female","front","false","false","true","","","",""
"","","","","","html-keyboard-response","10","32023","0.0-6.0","view","long","None","","null","<div style=""font-size: 48px;"">+</div>","null","","","","","","","","true","","","","","",""
"","","","","","html-button-response","11","34769","0.0-7.0-0.0","view","long","None","","2744","
          <style>
            .quote-box {
              border: 2px solid #ccc;
              padding: 16px;
              margin: 20px auto;
              border-radius: 8px;
              background-color: #ffffff;
              text-align: center;
            }
            .stimuli-image {
              display: block;
              margin: 10px auto;
              max-height: 150px;
            }
            .button-spacing {
              margin-top: 30px;
            }
          </style>

          <div style=""display: flex; align-items: center;"">
            <div style=""flex: 1; padding-right: 20px;"">
              <div class=""quote-box"">
                <p>This is called <strong>Ara</strong>.</p>
                <img src=""stimuli/camera_large.jpg"" class=""stimuli-image"">
              </div>

              <p style=""text-align: center;"">What is this called?</p>

              <div class=""quote-box"">
                <img src=""stimuli/camera_small.jpg"" class=""stimuli-image"">
              </div>

              <div class=""button-spacing""></div>
            </div>

            <div style=""flex-shrink: 0; width: 180px; height: 250px; display: flex; align-items: center; justify-content: center;"">
            <img src=""interlocutor/adult_male.png"" style=""width: 100%; height: 100%; object-fit: contain;"" />
            </div>
        ","1","false","Ararik","Ara","[""Ararik"",""Ararul""]","rik","male","front","false","false","false","","","",""
"","","","","","html-keyboard-response","12","35771","0.0-7.0-1.0-0.0","view","long","None","","null","<p style='color:red; font-size: 24px;'>Incorrect! Please try again.</p>","null","","","","","","","","","","","","","",""
"","","","","","html-button-response","13","37803","0.0-7.1-0.1","view","long","None","","2031","
          <style>
            .quote-box {
              border: 2px solid #ccc;
              padding: 16px;
              margin: 20px auto;
              border-radius: 8px;
              background-color: #ffffff;
              text-align: center;
            }
            .stimuli-image {
              display: block;
              margin: 10px auto;
              max-height: 150px;
            }
            .button-spacing {
              margin-top: 30px;
            }
          </style>

          <div style=""display: flex; align-items: center;"">
            <div style=""flex: 1; padding-right: 20px;"">
              <div class=""quote-box"">
                <p>This is called <strong>Ara</strong>.</p>
                <img src=""stimuli/camera_large.jpg"" class=""stimuli-image"">
              </div>

              <p style=""text-align: center;"">What is this called?</p>

              <div class=""quote-box"">
                <img src=""stimuli/camera_small.jpg"" class=""stimuli-image"">
              </div>

              <div class=""button-spacing""></div>
            </div>

            <div style=""flex-shrink: 0; width: 180px; height: 250px; display: flex; align-items: center; justify-content: center;"">
            <img src=""interlocutor/adult_male.png"" style=""width: 100%; height: 100%; object-fit: contain;"" />
            </div>
        ","0","false","Ararik","Ara","[""Ararik"",""Ararul""]","rik","male","front","false","false","true","","","",""
"","","","","","html-keyboard-response","14","38306","0.0-8.0","view","long","None","","null","<div style=""font-size: 48px;"">+</div>","null","","","","","","","","true","","","","","",""
"","","","","","survey-text","15","45254","0.0-9.0-0.0","view","long","None","","6942","","{""Q0"":""Aranik""}","","","","","","","","","true","false","aranik","ararik","",""
"","","","","","html-button-response","16","49086","0.0-10.0-0.0","view","long","None","","3830","
          <style>
            .quote-box {
              border: 2px solid #ccc;
              padding: 16px;
              margin: 20px auto;
              border-radius: 8px;
              background-color: #ffffff;
              text-align: center;
            }
            .stimuli-image {
              display: block;
              margin: 10px auto;
              max-height: 150px;
            }
            .button-spacing {
              margin-top: 30px;
            }
          </style>

          <div style=""display: flex; align-items: center;"">
            <div style=""flex: 1; padding-right: 20px;"">
              <div class=""quote-box"">
                <p>This is called <strong>Ola</strong>.</p>
                <img src=""stimuli/basket_small.png"" class=""stimuli-image"">
              </div>

              <p style=""text-align: center;"">What is this called?</p>

              <div class=""quote-box"">
                <img src=""stimuli/basket_large.png"" class=""stimuli-image"">
              </div>

              <div class=""button-spacing""></div>
            </div>

            <div style=""flex-shrink: 0; width: 180px; height: 250px; display: flex; align-items: center; justify-content: center;"">
            <img src=""interlocutor/child_male_02_side.png"" style=""width: 100%; height: 100%; object-fit: contain;"" />
            </div>
        ","0","false","Olarul","Ola","[""Olarik"",""Olarul""]","rul","male","side","false","false","false","","","",""
"","","","","","html-keyboard-response","17","50088","0.0-10.0-1.0-0.0","view","long","None","","null","<p style='color:red; font-size: 24px;'>Incorrect! Please try again.</p>","null","","","","","","","","","","","","","",""
"","","","","","html-button-response","18","52203","0.0-10.1-0.1","view","long","None","","2113","
          <style>
            .quote-box {
              border: 2px solid #ccc;
              padding: 16px;
              margin: 20px auto;
              border-radius: 8px;
              background-color: #ffffff;
              text-align: center;
            }
            .stimuli-image {
              display: block;
              margin: 10px auto;
              max-height: 150px;
            }
            .button-spacing {
              margin-top: 30px;
            }
          </style>

          <div style=""display: flex; align-items: center;"">
            <div style=""flex: 1; padding-right: 20px;"">
              <div class=""quote-box"">
                <p>This is called <strong>Ola</strong>.</p>
                <img src=""stimuli/basket_small.png"" class=""stimuli-image"">
              </div>

              <p style=""text-align: center;"">What is this called?</p>

              <div class=""quote-box"">
                <img src=""stimuli/basket_large.png"" class=""stimuli-image"">
              </div>

              <div class=""button-spacing""></div>
            </div>

            <div style=""flex-shrink: 0; width: 180px; height: 250px; display: flex; align-items: center; justify-content: center;"">
            <img src=""interlocutor/child_male_02_side.png"" style=""width: 100%; height: 100%; object-fit: contain;"" />
            </div>
        ","1","false","Olarul","Ola","[""Olarik"",""Olarul""]","rul","male","side","false","false","true","","","",""
"","","","","","html-keyboard-response","19","52705","0.0-11.0","view","long","None","","null","<div style=""font-size: 48px;"">+</div>","null","","","","","","","","true","","","","","",""
"","","","","","html-button-response","20","58971","0.0-12.0-0.0","view","long","None","","6264","
          <style>
            .quote-box {
              border: 2px solid #ccc;
              padding: 16px;
              margin: 20px auto;
              border-radius: 8px;
              background-color: #ffffff;
              text-align: center;
            }
            .stimuli-image {
              display: block;
              margin: 10px auto;
              max-height: 150px;
            }
            .button-spacing {
              margin-top: 30px;
            }
          </style>

          <div style=""display: flex; align-items: center;"">
            <div style=""flex: 1; padding-right: 20px;"">
              <div class=""quote-box"">
                <p>This is called <strong>Nuv</strong>.</p>
                <img src=""stimuli/asteroid_small.png"" class=""stimuli-image"">
              </div>

              <p style=""text-align: center;"">What is this called?</p>

              <div class=""quote-box"">
                <img src=""stimuli/asteroid_large.jpg"" class=""stimuli-image"">
              </div>

              <div class=""button-spacing""></div>
            </div>

            <div style=""flex-shrink: 0; width: 180px; height: 250px; display: flex; align-items: center; justify-content: center;"">
            <img src=""interlocutor/child_female_03_side.png"" style=""width: 100%; height: 100%; object-fit: contain;"" />
            </div>
        ","1","false","Nuvrul","Nuv","[""Nuvrik"",""Nuvrul""]","rul","female","side","false","false","true","","","",""
"","","","","","html-keyboard-response","21","59474","0.0-13.0","view","long","None","","null","<div style=""font-size: 48px;"">+</div>","null","","","","","","","","true","","","","","",""
"","","","","","html-button-response","22","62903","0.0-14.0-0.0","view","long","None","","3426","
          <style>
            .quote-box {
              border: 2px solid #ccc;
              padding: 16px;
              margin: 20px auto;
              border-radius: 8px;
              background-color: #ffffff;
              text-align: center;
            }
            .stimuli-image {
              display: block;
              margin: 10px auto;
              max-height: 150px;
            }
            .button-spacing {
              margin-top: 30px;
            }
          </style>

          <div style=""display: flex; align-items: center;"">
            <div style=""flex: 1; padding-right: 20px;"">
              <div class=""quote-box"">
                <p>This is called <strong>Rim</strong>.</p>
                <img src=""stimuli/light_small.jpeg"" class=""stimuli-image"">
              </div>

              <p style=""text-align: center;"">What is this called?</p>

              <div class=""quote-box"">
                <img src=""stimuli/light_large.png"" class=""stimuli-image"">
              </div>

              <div class=""button-spacing""></div>
            </div>

            <div style=""flex-shrink: 0; width: 180px; height: 250px; display: flex; align-items: center; justify-content: center;"">
            <img src=""interlocutor/child_male_02_side.png"" style=""width: 100%; height: 100%; object-fit: contain;"" />
            </div>
        ","0","false","Rimrul","Rim","[""Rimrik"",""Rimrul""]","rul","male","side","false","false","false","","","",""
"","","","","","html-keyboard-response","23","63905","0.0-14.0-1.0-0.0","view","long","None","","null","<p style='color:red; font-size: 24px;'>Incorrect! Please try again.</p>","null","","","","","","","","","","","","","",""
"","","","","","html-button-response","24","64869","0.0-14.1-0.1","view","long","None","","962","
          <style>
            .quote-box {
              border: 2px solid #ccc;
              padding: 16px;
              margin: 20px auto;
              border-radius: 8px;
              background-color: #ffffff;
              text-align: center;
            }
            .stimuli-image {
              display: block;
              margin: 10px auto;
              max-height: 150px;
            }
            .button-spacing {
              margin-top: 30px;
            }
          </style>

          <div style=""display: flex; align-items: center;"">
            <div style=""flex: 1; padding-right: 20px;"">
              <div class=""quote-box"">
                <p>This is called <strong>Rim</strong>.</p>
                <img src=""stimuli/light_small.jpeg"" class=""stimuli-image"">
              </div>

              <p style=""text-align: center;"">What is this called?</p>

              <div class=""quote-box"">
                <img src=""stimuli/light_large.png"" class=""stimuli-image"">
              </div>

              <div class=""button-spacing""></div>
            </div>

            <div style=""flex-shrink: 0; width: 180px; height: 250px; display: flex; align-items: center; justify-content: center;"">
            <img src=""interlocutor/child_male_02_side.png"" style=""width: 100%; height: 100%; object-fit: contain;"" />
            </div>
        ","1","false","Rimrul","Rim","[""Rimrik"",""Rimrul""]","rul","male","side","false","false","true","","","",""
"","","","","","html-keyboard-response","25","65371","0.0-15.0","view","long","None","","null","<div style=""font-size: 48px;"">+</div>","null","","","","","","","","true","","","","","",""
"","","","","","survey-text","26","70354","0.0-16.0-0.0","view","long","None","","4981","","{""Q0"":""rimrul""}","","","","","","","","","true","true","rimrul","rimrul","",""
"","","","","","html-button-response","27","99685","0.0-17.0-0.0","view","long","None","","29330","
          <style>
            .quote-box {
              border: 2px solid #ccc;
              padding: 16px;
              margin: 20px auto;
              border-radius: 8px;
              background-color: #ffffff;
              text-align: center;
            }
            .stimuli-image {
              display: block;
              margin: 10px auto;
              max-height: 150px;
            }
            .button-spacing {
              margin-top: 30px;
            }
          </style>

          <div style=""display: flex; align-items: center;"">
            <div style=""flex: 1; padding-right: 20px;"">
              <div class=""quote-box"">
                <p>This is called <strong>Baj</strong>.</p>
                <img src=""stimuli/yogurt_small.jpg"" class=""stimuli-image"">
              </div>

              <p style=""text-align: center;"">What is this called?</p>

              <div class=""quote-box"">
                <img src=""stimuli/yogurt_large.png"" class=""stimuli-image"">
              </div>

              <div class=""button-spacing""></div>
            </div>

            <div style=""flex-shrink: 0; width: 180px; height: 250px; display: flex; align-items: center; justify-content: center;"">
            <img src=""interlocutor/child_female.png"" style=""width: 100%; height: 100%; object-fit: contain;"" />
            </div>
        ","0","false","Bajrik","Baj","[""Bajrik"",""Bajrul""]","rik","female","front","false","false","true","","","",""
"","","","","","html-keyboard-response","28","100187","0.0-18.0","view","long","None","","null","<div style=""font-size: 48px;"">+</div>","null","","","","","","","","true","","","","","",""
"","","","","","html-button-response","29","102085","0.0-19.0-0.0","view","long","None","","1896","
          <style>
            .quote-box {
              border: 2px solid #ccc;
              padding: 16px;
              margin: 20px auto;
              border-radius: 8px;
              background-color: #ffffff;
              text-align: center;
            }
            .stimuli-image {
              display: block;
              margin: 10px auto;
              max-height: 150px;
            }
            .button-spacing {
              margin-top: 30px;
            }
          </style>

          <div style=""display: flex; align-items: center;"">
            <div style=""flex: 1; padding-right: 20px;"">
              <div class=""quote-box"">
                <p>This is called <strong>Pib</strong>.</p>
                <img src=""stimuli/candleholder_adult_01.png"" class=""stimuli-image"">
              </div>

              <p style=""text-align: center;"">What is this called?</p>

              <div class=""quote-box"">
                <img src=""stimuli/candleholder_child_01.png"" class=""stimuli-image"">
              </div>

              <div class=""button-spacing""></div>
            </div>

            <div style=""flex-shrink: 0; width: 180px; height: 250px; display: flex; align-items: center; justify-content: center;"">
            <img src=""interlocutor/child_female_03_side.png"" style=""width: 100%; height: 100%; object-fit: contain;"" />
            </div>
        ","1","false","Pibrul","Pib","[""Pibrik"",""Pibrul""]","rul","female","side","false","false","true","","","",""
"","","","","","html-keyboard-response","30","102587","0.0-20.0","view","long","None","","null","<div style=""font-size: 48px;"">+</div>","null","","","","","","","","true","","","","","",""
"","","","","","html-button-response","31","104919","0.0-21.0-0.0","view","long","None","","2330","
          <style>
            .quote-box {
              border: 2px solid #ccc;
              padding: 16px;
              margin: 20px auto;
              border-radius: 8px;
              background-color: #ffffff;
              text-align: center;
            }
            .stimuli-image {
              display: block;
              margin: 10px auto;
              max-height: 150px;
            }
            .button-spacing {
              margin-top: 30px;
            }
          </style>

          <div style=""display: flex; align-items: center;"">
            <div style=""flex: 1; padding-right: 20px;"">
              <div class=""quote-box"">
                <p>This is called <strong>Ked</strong>.</p>
                <img src=""stimuli/mushroom_adult_01.png"" class=""stimuli-image"">
              </div>

              <p style=""text-align: center;"">What is this called?</p>

              <div class=""quote-box"">
                <img src=""stimuli/mushroom_child_01.png"" class=""stimuli-image"">
              </div>

              <div class=""button-spacing""></div>
            </div>

            <div style=""flex-shrink: 0; width: 180px; height: 250px; display: flex; align-items: center; justify-content: center;"">
            <img src=""interlocutor/child_female.png"" style=""width: 100%; height: 100%; object-fit: contain;"" />
            </div>
        ","1","false","Kedrik","Ked","[""Kedrik"",""Kedrul""]","rik","female","front","false","false","false","","","",""
"","","","","","html-keyboard-response","32","105922","0.0-21.0-1.0-0.0","view","long","None","","null","<p style='color:red; font-size: 24px;'>Incorrect! Please try again.</p>","null","","","","","","","","","","","","","",""
"","","","","","html-button-response","33","107403","0.0-21.1-0.1","view","long","None","","1479","
          <style>
            .quote-box {
              border: 2px solid #ccc;
              padding: 16px;
              margin: 20px auto;
              border-radius: 8px;
              background-color: #ffffff;
              text-align: center;
            }
            .stimuli-image {
              display: block;
              margin: 10px auto;
              max-height: 150px;
            }
            .button-spacing {
              margin-top: 30px;
            }
          </style>

          <div style=""display: flex; align-items: center;"">
            <div style=""flex: 1; padding-right: 20px;"">
              <div class=""quote-box"">
                <p>This is called <strong>Ked</strong>.</p>
                <img src=""stimuli/mushroom_adult_01.png"" class=""stimuli-image"">
              </div>

              <p style=""text-align: center;"">What is this called?</p>

              <div class=""quote-box"">
                <img src=""stimuli/mushroom_child_01.png"" class=""stimuli-image"">
              </div>

              <div class=""button-spacing""></div>
            </div>

            <div style=""flex-shrink: 0; width: 180px; height: 250px; display: flex; align-items: center; justify-content: center;"">
            <img src=""interlocutor/child_female.png"" style=""width: 100%; height: 100%; object-fit: contain;"" />
            </div>
        ","0","false","Kedrik","Ked","[""Kedrik"",""Kedrul""]","rik","female","front","false","false","true","","","",""
"","","","","","html-keyboard-response","34","107906","0.0-22.0","view","long","None","","null","<div style=""font-size: 48px;"">+</div>","null","","","","","","","","true","","","","","",""
"","","","","","survey-text","35","111985","0.0-23.0-0.0","view","long","None","","4076","","{""Q0"":""kedrik""}","","","","","","","","","true","true","kedrik","kedrik","",""
"","","","","","html-button-response","36","114153","0.0-24.0-0.0","view","long","None","","2166","
          <style>
            .quote-box {
              border: 2px solid #ccc;
              padding: 16px;
              margin: 20px auto;
              border-radius: 8px;
              background-color: #ffffff;
              text-align: center;
            }
            .stimuli-image {
              display: block;
              margin: 10px auto;
              max-height: 150px;
            }
            .button-spacing {
              margin-top: 30px;
            }
          </style>

          <div style=""display: flex; align-items: center;"">
            <div style=""flex: 1; padding-right: 20px;"">
              <div class=""quote-box"">
                <p>This is called <strong>Ibo</strong>.</p>
                <img src=""stimuli/daisy_adult.png"" class=""stimuli-image"">
              </div>

              <p style=""text-align: center;"">What is this called?</p>

              <div class=""quote-box"">
                <img src=""stimuli/daisy_small.png"" class=""stimuli-image"">
              </div>

              <div class=""button-spacing""></div>
            </div>

            <div style=""flex-shrink: 0; width: 180px; height: 250px; display: flex; align-items: center; justify-content: center;"">
            <img src=""interlocutor/child_female.png"" style=""width: 100%; height: 100%; object-fit: contain;"" />
            </div>
        ","1","false","Iborik","Ibo","[""Iborik"",""Iborul""]","rik","female","front","false","false","false","","","",""
"","","","","","html-keyboard-response","37","115155","0.0-24.0-1.0-0.0","view","long","None","","null","<p style='color:red; font-size: 24px;'>Incorrect! Please try again.</p>","null","","","","","","","","","","","","","",""
"","","","","","html-button-response","38","116884","0.0-24.1-0.1","view","long","None","","1728","
          <style>
            .quote-box {
              border: 2px solid #ccc;
              padding: 16px;
              margin: 20px auto;
              border-radius: 8px;
              background-color: #ffffff;
              text-align: center;
            }
            .stimuli-image {
              display: block;
              margin: 10px auto;
              max-height: 150px;
            }
            .button-spacing {
              margin-top: 30px;
            }
          </style>

          <div style=""display: flex; align-items: center;"">
            <div style=""flex: 1; padding-right: 20px;"">
              <div class=""quote-box"">
                <p>This is called <strong>Ibo</strong>.</p>
                <img src=""stimuli/daisy_adult.png"" class=""stimuli-image"">
              </div>

              <p style=""text-align: center;"">What is this called?</p>

              <div class=""quote-box"">
                <img src=""stimuli/daisy_small.png"" class=""stimuli-image"">
              </div>

              <div class=""button-spacing""></div>
            </div>

            <div style=""flex-shrink: 0; width: 180px; height: 250px; display: flex; align-items: center; justify-content: center;"">
            <img src=""interlocutor/child_female.png"" style=""width: 100%; height: 100%; object-fit: contain;"" />
            </div>
        ","0","false","Iborik","Ibo","[""Iborik"",""Iborul""]","rik","female","front","false","false","true","","","",""
"","","","","","html-keyboard-response","39","117386","0.0-25.0","view","long","None","","null","<div style=""font-size: 48px;"">+</div>","null","","","","","","","","true","","","","","",""
"","","","","","html-button-response","40","120468","0.0-26.0-0.0","view","long","None","","3081","
          <style>
            .quote-box {
              border: 2px solid #ccc;
              padding: 16px;
              margin: 20px auto;
              border-radius: 8px;
              background-color: #ffffff;
              text-align: center;
            }
            .stimuli-image {
              display: block;
              margin: 10px auto;
              max-height: 150px;
            }
            .button-spacing {
              margin-top: 30px;
            }
          </style>

          <div style=""display: flex; align-items: center;"">
            <div style=""flex: 1; padding-right: 20px;"">
              <div class=""quote-box"">
                <p>This is called <strong>Lom</strong>.</p>
                <img src=""stimuli/bunny.jpg"" class=""stimuli-image"">
              </div>

              <p style=""text-align: center;"">What is this called?</p>

              <div class=""quote-box"">
                <img src=""stimuli/rabbit.jpg"" class=""stimuli-image"">
              </div>

              <div class=""button-spacing""></div>
            </div>

            <div style=""flex-shrink: 0; width: 180px; height: 250px; display: flex; align-items: center; justify-content: center;"">
            <img src=""interlocutor/adult_male.png"" style=""width: 100%; height: 100%; object-fit: contain;"" />
            </div>
        ","0","false","Lomrik","Lom","[""Lomrik"",""Lomrul""]","rik","male","front","false","false","true","","","",""
"","","","","","html-keyboard-response","41","120970","0.0-27.0","view","long","None","","null","<div style=""font-size: 48px;"">+</div>","null","","","","","","","","true","","","","","",""
"","","","","","html-button-response","42","123050","0.0-28.0-0.0","view","long","None","","2078","
          <style>
            .quote-box {
              border: 2px solid #ccc;
              padding: 16px;
              margin: 20px auto;
              border-radius: 8px;
              background-color: #ffffff;
              text-align: center;
            }
            .stimuli-image {
              display: block;
              margin: 10px auto;
              max-height: 150px;
            }
            .button-spacing {
              margin-top: 30px;
            }
          </style>

          <div style=""display: flex; align-items: center;"">
            <div style=""flex: 1; padding-right: 20px;"">
              <div class=""quote-box"">
                <p>This is called <strong>Hux</strong>.</p>
                <img src=""stimuli/pitcher_adult_01.png"" class=""stimuli-image"">
              </div>

              <p style=""text-align: center;"">What is this called?</p>

              <div class=""quote-box"">
                <img src=""stimuli/pitcher_child_01.png"" class=""stimuli-image"">
              </div>

              <div class=""button-spacing""></div>
            </div>

            <div style=""flex-shrink: 0; width: 180px; height: 250px; display: flex; align-items: center; justify-content: center;"">
            <img src=""interlocutor/child_female.png"" style=""width: 100%; height: 100%; object-fit: contain;"" />
            </div>
        ","1","false","Huxrik","Hux","[""Huxrik"",""Huxrul""]","rik","female","front","false","false","false","","","",""
"","","","","","html-keyboard-response","43","124052","0.0-28.0-1.0-0.0","view","long","None","","null","<p style='color:red; font-size: 24px;'>Incorrect! Please try again.</p>","null","","","","","","","","","","","","","",""
"","","","","","html-button-response","44","125251","0.0-28.1-0.1","view","long","None","","1198","
          <style>
            .quote-box {
              border: 2px solid #ccc;
              padding: 16px;
              margin: 20px auto;
              border-radius: 8px;
              background-color: #ffffff;
              text-align: center;
            }
            .stimuli-image {
              display: block;
              margin: 10px auto;
              max-height: 150px;
            }
            .button-spacing {
              margin-top: 30px;
            }
          </style>

          <div style=""display: flex; align-items: center;"">
            <div style=""flex: 1; padding-right: 20px;"">
              <div class=""quote-box"">
                <p>This is called <strong>Hux</strong>.</p>
                <img src=""stimuli/pitcher_adult_01.png"" class=""stimuli-image"">
              </div>

              <p style=""text-align: center;"">What is this called?</p>

              <div class=""quote-box"">
                <img src=""stimuli/pitcher_child_01.png"" class=""stimuli-image"">
              </div>

              <div class=""button-spacing""></div>
            </div>

            <div style=""flex-shrink: 0; width: 180px; height: 250px; display: flex; align-items: center; justify-content: center;"">
            <img src=""interlocutor/child_female.png"" style=""width: 100%; height: 100%; object-fit: contain;"" />
            </div>
        ","0","false","Huxrik","Hux","[""Huxrik"",""Huxrul""]","rik","female","front","false","false","true","","","",""
"","","","","","html-keyboard-response","45","125753","0.0-29.0","view","long","None","","null","<div style=""font-size: 48px;"">+</div>","null","","","","","","","","true","","","","","",""
"","","","","","survey-text","46","130919","0.0-30.0-0.0","view","long","None","","5163","","{""Q0"":""huxrik""}","","","","","","","","","true","true","huxrik","huxrik","",""
"","","","","","html-button-response","47","139051","0.0-31.0-0.0","view","long","None","","8131","
          <style>
            .quote-box {
              border: 2px solid #ccc;
              padding: 16px;
              margin: 20px auto;
              border-radius: 8px;
              background-color: #ffffff;
              text-align: center;
            }
            .stimuli-image {
              display: block;
              margin: 10px auto;
              max-height: 150px;
            }
            .button-spacing {
              margin-top: 30px;
            }
          </style>

          <div style=""display: flex; align-items: center;"">
            <div style=""flex: 1; padding-right: 20px;"">
              <div class=""quote-box"">
                <p>This is called <strong>Mox</strong>.</p>
                <img src=""stimuli/small_boat.jpg"" class=""stimuli-image"">
              </div>

              <p style=""text-align: center;"">What is this called?</p>

              <div class=""quote-box"">
                <img src=""stimuli/large_boat.png"" class=""stimuli-image"">
              </div>

              <div class=""button-spacing""></div>
            </div>

            <div style=""flex-shrink: 0; width: 180px; height: 250px; display: flex; align-items: center; justify-content: center;"">
            <img src=""interlocutor/child_female_03_side.png"" style=""width: 100%; height: 100%; object-fit: contain;"" />
            </div>
        ","1","false","Moxrul","Mox","[""Moxrik"",""Moxrul""]","rul","female","side","false","false","true","","","",""
"","","","","","html-keyboard-response","48","139553","0.0-32.0","view","long","None","","null","<div style=""font-size: 48px;"">+</div>","null","","","","","","","","true","","","","","",""
"","","","","","html-button-response","49","141101","0.0-33.0-0.0","view","long","None","","1546","
          <style>
            .quote-box {
              border: 2px solid #ccc;
              padding: 16px;
              margin: 20px auto;
              border-radius: 8px;
              background-color: #ffffff;
              text-align: center;
            }
            .stimuli-image {
              display: block;
              margin: 10px auto;
              max-height: 150px;
            }
            .button-spacing {
              margin-top: 30px;
            }
          </style>

          <div style=""display: flex; align-items: center;"">
            <div style=""flex: 1; padding-right: 20px;"">
              <div class=""quote-box"">
                <p>This is called <strong>Fob</strong>.</p>
                <img src=""stimuli/bear_adult_male_01.png"" class=""stimuli-image"">
              </div>

              <p style=""text-align: center;"">What is this called?</p>

              <div class=""quote-box"">
                <img src=""stimuli/bear_child_01.png"" class=""stimuli-image"">
              </div>

              <div class=""button-spacing""></div>
            </div>

            <div style=""flex-shrink: 0; width: 180px; height: 250px; display: flex; align-items: center; justify-content: center;"">
            <img src=""interlocutor/child_male_02_side.png"" style=""width: 100%; height: 100%; object-fit: contain;"" />
            </div>
        ","1","false","Fobrul","Fob","[""Fobrik"",""Fobrul""]","rul","male","side","false","false","true","","","",""
"","","","","","html-keyboard-response","50","141604","0.0-34.0","view","long","None","","null","<div style=""font-size: 48px;"">+</div>","null","","","","","","","","true","","","","","",""
"","","","","","html-button-response","51","144068","0.0-35.0-0.0","view","long","None","","2462","
          <style>
            .quote-box {
              border: 2px solid #ccc;
              padding: 16px;
              margin: 20px auto;
              border-radius: 8px;
              background-color: #ffffff;
              text-align: center;
            }
            .stimuli-image {
              display: block;
              margin: 10px auto;
              max-height: 150px;
            }
            .button-spacing {
              margin-top: 30px;
            }
          </style>

          <div style=""display: flex; align-items: center;"">
            <div style=""flex: 1; padding-right: 20px;"">
              <div class=""quote-box"">
                <p>This is called <strong>Yor</strong>.</p>
                <img src=""stimuli/gate_adult_01.png"" class=""stimuli-image"">
              </div>

              <p style=""text-align: center;"">What is this called?</p>

              <div class=""quote-box"">
                <img src=""stimuli/gate_child_01.png"" class=""stimuli-image"">
              </div>

              <div class=""button-spacing""></div>
            </div>

            <div style=""flex-shrink: 0; width: 180px; height: 250px; display: flex; align-items: center; justify-content: center;"">
            <img src=""interlocutor/child_female.png"" style=""width: 100%; height: 100%; object-fit: contain;"" />
            </div>
        ","0","false","Yorrik","Yor","[""Yorrik"",""Yorrul""]","rik","female","front","false","false","true","","","",""
"","","","","","html-keyboard-response","52","144570","0.0-36.0","view","long","None","","null","<div style=""font-size: 48px;"">+</div>","null","","","","","","","","true","","","","","",""
"","","","","","survey-text","53","149069","0.0-37.0-0.0","view","long","None","","4497","","{""Q0"":""yorrik""}","","","","","","","","","true","true","yorrik","yorrik","",""
"","","","","","html-button-response","54","150734","0.0-38.0-0.0","view","long","None","","1663","
          <style>
            .quote-box {
              border: 2px solid #ccc;
              padding: 16px;
              margin: 20px auto;
              border-radius: 8px;
              background-color: #ffffff;
              text-align: center;
            }
            .stimuli-image {
              display: block;
              margin: 10px auto;
              max-height: 150px;
            }
            .button-spacing {
              margin-top: 30px;
            }
          </style>

          <div style=""display: flex; align-items: center;"">
            <div style=""flex: 1; padding-right: 20px;"">
              <div class=""quote-box"">
                <p>This is called <strong>Han</strong>.</p>
                <img src=""stimuli/chair_adult_02.png"" class=""stimuli-image"">
              </div>

              <p style=""text-align: center;"">What is this called?</p>

              <div class=""quote-box"">
                <img src=""stimuli/chair_small.png"" class=""stimuli-image"">
              </div>

              <div class=""button-spacing""></div>
            </div>

            <div style=""flex-shrink: 0; width: 180px; height: 250px; display: flex; align-items: center; justify-content: center;"">
            <img src=""interlocutor/child_male_02_side.png"" style=""width: 100%; height: 100%; object-fit: contain;"" />
            </div>
        ","1","false","Hanrul","Han","[""Hanrik"",""Hanrul""]","rul","male","side","false","false","true","","","",""
"","","","","","html-keyboard-response","55","151237","0.0-39.0","view","long","None","","null","<div style=""font-size: 48px;"">+</div>","null","","","","","","","","true","","","","","",""
"","","","","","html-button-response","56","153118","0.0-40.0-0.0","view","long","None","","1879","
          <style>
            .quote-box {
              border: 2px solid #ccc;
              padding: 16px;
              margin: 20px auto;
              border-radius: 8px;
              background-color: #ffffff;
              text-align: center;
            }
            .stimuli-image {
              display: block;
              margin: 10px auto;
              max-height: 150px;
            }
            .button-spacing {
              margin-top: 30px;
            }
          </style>

          <div style=""display: flex; align-items: center;"">
            <div style=""flex: 1; padding-right: 20px;"">
              <div class=""quote-box"">
                <p>This is called <strong>Fek</strong>.</p>
                <img src=""stimuli/fox_adult_male_01.png"" class=""stimuli-image"">
              </div>

              <p style=""text-align: center;"">What is this called?</p>

              <div class=""quote-box"">
                <img src=""stimuli/fox_child_01.png"" class=""stimuli-image"">
              </div>

              <div class=""button-spacing""></div>
            </div>

            <div style=""flex-shrink: 0; width: 180px; height: 250px; display: flex; align-items: center; justify-content: center;"">
            <img src=""interlocutor/child_female_03_side.png"" style=""width: 100%; height: 100%; object-fit: contain;"" />
            </div>
        ","1","false","Fekrul","Fek","[""Fekrik"",""Fekrul""]","rul","female","side","false","false","true","","","",""
"","","","","","html-keyboard-response","57","153620","0.0-41.0","view","long","None","","null","<div style=""font-size: 48px;"">+</div>","null","","","","","","","","true","","","","","",""
"","","","","","html-button-response","58","155218","0.0-42.0-0.0","view","long","None","","1596","
          <style>
            .quote-box {
              border: 2px solid #ccc;
              padding: 16px;
              margin: 20px auto;
              border-radius: 8px;
              background-color: #ffffff;
              text-align: center;
            }
            .stimuli-image {
              display: block;
              margin: 10px auto;
              max-height: 150px;
            }
            .button-spacing {
              margin-top: 30px;
            }
          </style>

          <div style=""display: flex; align-items: center;"">
            <div style=""flex: 1; padding-right: 20px;"">
              <div class=""quote-box"">
                <p>This is called <strong>Cov</strong>.</p>
                <img src=""stimuli/penguin.png"" class=""stimuli-image"">
              </div>

              <p style=""text-align: center;"">What is this called?</p>

              <div class=""quote-box"">
                <img src=""stimuli/penguin_large.png"" class=""stimuli-image"">
              </div>

              <div class=""button-spacing""></div>
            </div>

            <div style=""flex-shrink: 0; width: 180px; height: 250px; display: flex; align-items: center; justify-content: center;"">
            <img src=""interlocutor/child_female.png"" style=""width: 100%; height: 100%; object-fit: contain;"" />
            </div>
        ","0","false","Covrik","Cov","[""Covrik"",""Covrul""]","rik","female","front","false","false","true","","","",""
"","","","","","html-keyboard-response","59","155720","0.0-43.0","view","long","None","","null","<div style=""font-size: 48px;"">+</div>","null","","","","","","","","true","","","","","",""
"","","","","","survey-text","60","160301","0.0-44.0-0.0","view","long","None","","4578","","{""Q0"":""covrik""}","","","","","","","","","true","true","covrik","covrik","",""
"","","","","","instructions","61","162834","0.0-45.0","view","long","None","[{""page_index"":0,""viewing_time"":2531}]","2532","","","","","","","","","","","","","","","",""
"","","","","","html-button-response","62","164834","0.0-46.0-0.0","view","long","None","","1998","
          <style>
            .test-trial-container {
              display: flex;
              align-items: center;
              justify-content: space-between;
              margin: 0 auto;
              max-width: 900px;
            }
            .test-stimulus {
              flex: 1;
              text-align: center;
            }
            .stimulus-box {
              border: 2px solid #ccc;
              padding: 20px;
              border-radius: 10px;
              display: inline-block;
              background-color: #f9f9f9;
            }
            .stimulus-image {
              height: 200px;
              max-width: 200px;
              object-fit: contain;
            }
            .interlocutor-image {
              height: 250px;
            }
            .button-spacing {
              margin-top: 30px;
            }
          </style>

         <div class=""test-trial-container"" style=""display: flex; justify-content: center; gap: 40px; align-items: flex-start;"">

        
        <div class=""stimulus-box"">
        <img src=""stimuli/bear_adult_male_01.png"" class=""stimulus-image"">
        </div>

      
        <div class=""interlocutor-box"">
        <div class=""prompt-text"">What would I call this?</div>
        <div class=""button-spacing""></div>
        <img src=""interlocutor/child_male_side.png"" class=""interlocutor-image"">
        </div>

        </div>

        <div class=""button-spacing""></div>
        ","1","true","Fobrul","Fob","[""Fobrul"",""Fobrik""]","rul","male","side","","","false","","","",""
"","","","","","html-keyboard-response","63","165336","0.0-47.0","view","long","None","","null","<div style=""font-size: 48px;"">+</div>","null","","","","","","","","true","","","","","",""
"","","","","","html-button-response","64","167151","0.0-48.0-0.0","view","long","None","","1812","
          <style>
            .test-trial-container {
              display: flex;
              align-items: center;
              justify-content: space-between;
              margin: 0 auto;
              max-width: 900px;
            }
            .test-stimulus {
              flex: 1;
              text-align: center;
            }
            .stimulus-box {
              border: 2px solid #ccc;
              padding: 20px;
              border-radius: 10px;
              display: inline-block;
              background-color: #f9f9f9;
            }
            .stimulus-image {
              height: 200px;
              max-width: 200px;
              object-fit: contain;
            }
            .interlocutor-image {
              height: 250px;
            }
            .button-spacing {
              margin-top: 30px;
            }
          </style>

         <div class=""test-trial-container"" style=""display: flex; justify-content: center; gap: 40px; align-items: flex-start;"">

        
        <div class=""stimulus-box"">
        <img src=""stimuli/gate_adult_01.png"" class=""stimulus-image"">
        </div>

      
        <div class=""interlocutor-box"">
        <div class=""prompt-text"">What would I call this?</div>
        <div class=""button-spacing""></div>
        <img src=""interlocutor/adult_male_02.png"" class=""interlocutor-image"">
        </div>

        </div>

        <div class=""button-spacing""></div>
        ","0","true","Yorrik","Yor","[""Yorrik"",""Yorrul""]","rik","male","front","","","true","","","",""
"","","","","","html-keyboard-response","65","167653","0.0-49.0","view","long","None","","null","<div style=""font-size: 48px;"">+</div>","null","","","","","","","","true","","","","","",""
"","","","","","html-button-response","66","169617","0.0-50.0-0.0","view","long","None","","1962","
          <style>
            .test-trial-container {
              display: flex;
              align-items: center;
              justify-content: space-between;
              margin: 0 auto;
              max-width: 900px;
            }
            .test-stimulus {
              flex: 1;
              text-align: center;
            }
            .stimulus-box {
              border: 2px solid #ccc;
              padding: 20px;
              border-radius: 10px;
              display: inline-block;
              background-color: #f9f9f9;
            }
            .stimulus-image {
              height: 200px;
              max-width: 200px;
              object-fit: contain;
            }
            .interlocutor-image {
              height: 250px;
            }
            .button-spacing {
              margin-top: 30px;
            }
          </style>

         <div class=""test-trial-container"" style=""display: flex; justify-content: center; gap: 40px; align-items: flex-start;"">

        
        <div class=""stimulus-box"">
        <img src=""teststimuli/bag.svg"" class=""stimulus-image"">
        </div>

      
        <div class=""interlocutor-box"">
        <div class=""prompt-text"">What would I call this?</div>
        <div class=""button-spacing""></div>
        <img src=""interlocutor/adult_female_side.png"" class=""interlocutor-image"">
        </div>

        </div>

        <div class=""button-spacing""></div>
        ","1","true","Gulrul","Gul","[""Gulrul"",""Gulrik""]","rul","female","side","","","false","","","",""
"","","","","","html-keyboard-response","67","170120","0.0-51.0","view","long","None","","null","<div style=""font-size: 48px;"">+</div>","null","","","","","","","","true","","","","","",""
"","","","","","html-button-response","68","173349","0.0-52.0-0.0","view","long","None","","3228","
          <style>
            .test-trial-container {
              display: flex;
              align-items: center;
              justify-content: space-between;
              margin: 0 auto;
              max-width: 900px;
            }
            .test-stimulus {
              flex: 1;
              text-align: center;
            }
            .stimulus-box {
              border: 2px solid #ccc;
              padding: 20px;
              border-radius: 10px;
              display: inline-block;
              background-color: #f9f9f9;
            }
            .stimulus-image {
              height: 200px;
              max-width: 200px;
              object-fit: contain;
            }
            .interlocutor-image {
              height: 250px;
            }
            .button-spacing {
              margin-top: 30px;
            }
          </style>

         <div class=""test-trial-container"" style=""display: flex; justify-content: center; gap: 40px; align-items: flex-start;"">

        
        <div class=""stimulus-box"">
        <img src=""teststimuli/tree.svg"" class=""stimulus-image"">
        </div>

      
        <div class=""interlocutor-box"">
        <div class=""prompt-text"">What would I call this?</div>
        <div class=""button-spacing""></div>
        <img src=""interlocutor/adult_female.png"" class=""interlocutor-image"">
        </div>

        </div>

        <div class=""button-spacing""></div>
        ","1","true","Jorrik","Jor","[""Jorrik"",""Jorrul""]","rik","female","front","","","false","","","",""
"","","","","","html-keyboard-response","69","173852","0.0-53.0","view","long","None","","null","<div style=""font-size: 48px;"">+</div>","null","","","","","","","","true","","","","","",""
"","","","","","html-button-response","70","185034","0.0-54.0-0.0","view","long","None","","11180","
          <style>
            .test-trial-container {
              display: flex;
              align-items: center;
              justify-content: space-between;
              margin: 0 auto;
              max-width: 900px;
            }
            .test-stimulus {
              flex: 1;
              text-align: center;
            }
            .stimulus-box {
              border: 2px solid #ccc;
              padding: 20px;
              border-radius: 10px;
              display: inline-block;
              background-color: #f9f9f9;
            }
            .stimulus-image {
              height: 200px;
              max-width: 200px;
              object-fit: contain;
            }
            .interlocutor-image {
              height: 250px;
            }
            .button-spacing {
              margin-top: 30px;
            }
          </style>

         <div class=""test-trial-container"" style=""display: flex; justify-content: center; gap: 40px; align-items: flex-start;"">

        
        <div class=""stimulus-box"">
        <img src=""stimuli/pitcher_adult_01.png"" class=""stimulus-image"">
        </div>

      
        <div class=""interlocutor-box"">
        <div class=""prompt-text"">What would I call this?</div>
        <div class=""button-spacing""></div>
        <img src=""interlocutor/child_male_side.png"" class=""interlocutor-image"">
        </div>

        </div>

        <div class=""button-spacing""></div>
        ","0","true","Huxrul","Hux","[""Huxrik"",""Huxrul""]","rul","male","side","","","false","","","",""
"","","","","","html-keyboard-response","71","185536","0.0-55.0","view","long","None","","null","<div style=""font-size: 48px;"">+</div>","null","","","","","","","","true","","","","","",""
"","","","","","html-button-response","72","188667","0.0-56.0-0.0","view","long","None","","3129","
          <style>
            .test-trial-container {
              display: flex;
              align-items: center;
              justify-content: space-between;
              margin: 0 auto;
              max-width: 900px;
            }
            .test-stimulus {
              flex: 1;
              text-align: center;
            }
            .stimulus-box {
              border: 2px solid #ccc;
              padding: 20px;
              border-radius: 10px;
              display: inline-block;
              background-color: #f9f9f9;
            }
            .stimulus-image {
              height: 200px;
              max-width: 200px;
              object-fit: contain;
            }
            .interlocutor-image {
              height: 250px;
            }
            .button-spacing {
              margin-top: 30px;
            }
          </style>

         <div class=""test-trial-container"" style=""display: flex; justify-content: center; gap: 40px; align-items: flex-start;"">

        
        <div class=""stimulus-box"">
        <img src=""stimuli/bokchoy_adult_01.png"" class=""stimulus-image"">
        </div>

      
        <div class=""interlocutor-box"">
        <div class=""prompt-text"">What would I call this?</div>
        <div class=""button-spacing""></div>
        <img src=""interlocutor/elder_female.png"" class=""interlocutor-image"">
        </div>

        </div>

        <div class=""button-spacing""></div>
        ","0","true","Danrik","Dan","[""Danrik"",""Danrul""]","rik","female","front","","","true","","","",""
"","","","","","html-keyboard-response","73","189169","0.0-57.0","view","long","None","","null","<div style=""font-size: 48px;"">+</div>","null","","","","","","","","true","","","","","",""
"","","","","","html-button-response","74","195283","0.0-58.0-0.0","view","long","None","","6112","
          <style>
            .test-trial-container {
              display: flex;
              align-items: center;
              justify-content: space-between;
              margin: 0 auto;
              max-width: 900px;
            }
            .test-stimulus {
              flex: 1;
              text-align: center;
            }
            .stimulus-box {
              border: 2px solid #ccc;
              padding: 20px;
              border-radius: 10px;
              display: inline-block;
              background-color: #f9f9f9;
            }
            .stimulus-image {
              height: 200px;
              max-width: 200px;
              object-fit: contain;
            }
            .interlocutor-image {
              height: 250px;
            }
            .button-spacing {
              margin-top: 30px;
            }
          </style>

         <div class=""test-trial-container"" style=""display: flex; justify-content: center; gap: 40px; align-items: flex-start;"">

        
        <div class=""stimulus-box"">
        <img src=""teststimuli/sandwich.svg"" class=""stimulus-image"">
        </div>

      
        <div class=""interlocutor-box"">
        <div class=""prompt-text"">What would I call this?</div>
        <div class=""button-spacing""></div>
        <img src=""interlocutor/teen_male.png"" class=""interlocutor-image"">
        </div>

        </div>

        <div class=""button-spacing""></div>
        ","0","true","Nixrik","Nix","[""Nixrik"",""Nixrul""]","rik","male","front","","","true","","","",""
"","","","","","html-keyboard-response","75","195785","0.0-59.0","view","long","None","","null","<div style=""font-size: 48px;"">+</div>","null","","","","","","","","true","","","","","",""
"","","","","","html-button-response","76","197449","0.0-60.0-0.0","view","long","None","","1663","
          <style>
            .test-trial-container {
              display: flex;
              align-items: center;
              justify-content: space-between;
              margin: 0 auto;
              max-width: 900px;
            }
            .test-stimulus {
              flex: 1;
              text-align: center;
            }
            .stimulus-box {
              border: 2px solid #ccc;
              padding: 20px;
              border-radius: 10px;
              display: inline-block;
              background-color: #f9f9f9;
            }
            .stimulus-image {
              height: 200px;
              max-width: 200px;
              object-fit: contain;
            }
            .interlocutor-image {
              height: 250px;
            }
            .button-spacing {
              margin-top: 30px;
            }
          </style>

         <div class=""test-trial-container"" style=""display: flex; justify-content: center; gap: 40px; align-items: flex-start;"">

        
        <div class=""stimulus-box"">
        <img src=""teststimuli/plane.svg"" class=""stimulus-image"">
        </div>

      
        <div class=""interlocutor-box"">
        <div class=""prompt-text"">What would I call this?</div>
        <div class=""button-spacing""></div>
        <img src=""interlocutor/child_male_02_side.png"" class=""interlocutor-image"">
        </div>

        </div>

        <div class=""button-spacing""></div>
        ","1","true","Meyrul","Mey","[""Meyrul"",""Meyrik""]","rul","male","side","","","false","","","",""
"","","","","","html-keyboard-response","77","197952","0.0-61.0","view","long","None","","null","<div style=""font-size: 48px;"">+</div>","null","","","","","","","","true","","","","","",""
"","","","","","html-button-response","78","199916","0.0-62.0-0.0","view","long","None","","1963","
          <style>
            .test-trial-container {
              display: flex;
              align-items: center;
              justify-content: space-between;
              margin: 0 auto;
              max-width: 900px;
            }
            .test-stimulus {
              flex: 1;
              text-align: center;
            }
            .stimulus-box {
              border: 2px solid #ccc;
              padding: 20px;
              border-radius: 10px;
              display: inline-block;
              background-color: #f9f9f9;
            }
            .stimulus-image {
              height: 200px;
              max-width: 200px;
              object-fit: contain;
            }
            .interlocutor-image {
              height: 250px;
            }
            .button-spacing {
              margin-top: 30px;
            }
          </style>

         <div class=""test-trial-container"" style=""display: flex; justify-content: center; gap: 40px; align-items: flex-start;"">

        
        <div class=""stimulus-box"">
        <img src=""teststimuli/fish.svg"" class=""stimulus-image"">
        </div>

      
        <div class=""interlocutor-box"">
        <div class=""prompt-text"">What would I call this?</div>
        <div class=""button-spacing""></div>
        <img src=""interlocutor/adult_male_02_side.png"" class=""interlocutor-image"">
        </div>

        </div>

        <div class=""button-spacing""></div>
        ","0","true","Selrul","Sel","[""Selrik"",""Selrul""]","rul","male","side","","","false","","","",""
"","","","","","html-keyboard-response","79","200419","0.0-63.0","view","long","None","","null","<div style=""font-size: 48px;"">+</div>","null","","","","","","","","true","","","","","",""
"","","","","","html-button-response","80","204483","0.0-64.0-0.0","view","long","None","","4063","
          <style>
            .test-trial-container {
              display: flex;
              align-items: center;
              justify-content: space-between;
              margin: 0 auto;
              max-width: 900px;
            }
            .test-stimulus {
              flex: 1;
              text-align: center;
            }
            .stimulus-box {
              border: 2px solid #ccc;
              padding: 20px;
              border-radius: 10px;
              display: inline-block;
              background-color: #f9f9f9;
            }
            .stimulus-image {
              height: 200px;
              max-width: 200px;
              object-fit: contain;
            }
            .interlocutor-image {
              height: 250px;
            }
            .button-spacing {
              margin-top: 30px;
            }
          </style>

         <div class=""test-trial-container"" style=""display: flex; justify-content: center; gap: 40px; align-items: flex-start;"">

        
        <div class=""stimulus-box"">
        <img src=""teststimuli/couch.svg"" class=""stimulus-image"">
        </div>

      
        <div class=""interlocutor-box"">
        <div class=""prompt-text"">What would I call this?</div>
        <div class=""button-spacing""></div>
        <img src=""interlocutor/teen_male.png"" class=""interlocutor-image"">
        </div>

        </div>

        <div class=""button-spacing""></div>
        ","0","true","Nixrik","Nix","[""Nixrik"",""Nixrul""]","rik","male","front","","","true","","","",""
"","","","","","html-keyboard-response","81","204986","0.0-65.0","view","long","None","","null","<div style=""font-size: 48px;"">+</div>","null","","","","","","","","true","","","","","",""
"","","","","","html-button-response","82","207566","0.0-66.0-0.0","view","long","None","","2578","<p><strong>Attention Check</strong></p><p>Click the button labeled ""Right"".</p>","1","","","","","","","","","","true","","","attention-check","1"
"","","","","","html-button-response","83","211483","0.0-67.0-0.0","view","long","None","","3915","
          <style>
            .test-trial-container {
              display: flex;
              align-items: center;
              justify-content: space-between;
              margin: 0 auto;
              max-width: 900px;
            }
            .test-stimulus {
              flex: 1;
              text-align: center;
            }
            .stimulus-box {
              border: 2px solid #ccc;
              padding: 20px;
              border-radius: 10px;
              display: inline-block;
              background-color: #f9f9f9;
            }
            .stimulus-image {
              height: 200px;
              max-width: 200px;
              object-fit: contain;
            }
            .interlocutor-image {
              height: 250px;
            }
            .button-spacing {
              margin-top: 30px;
            }
          </style>

         <div class=""test-trial-container"" style=""display: flex; justify-content: center; gap: 40px; align-items: flex-start;"">

        
        <div class=""stimulus-box"">
        <img src=""teststimuli/elder.svg"" class=""stimulus-image"">
        </div>

      
        <div class=""interlocutor-box"">
        <div class=""prompt-text"">What would I call this?</div>
        <div class=""button-spacing""></div>
        <img src=""interlocutor/child_male_02_side.png"" class=""interlocutor-image"">
        </div>

        </div>

        <div class=""button-spacing""></div>
        ","1","true","Gynrul","Gyn","[""Gynrul"",""Gynrik""]","rul","male","side","","","false","","","",""
"","","","","","html-keyboard-response","84","211985","0.0-68.0","view","long","None","","null","<div style=""font-size: 48px;"">+</div>","null","","","","","","","","true","","","","","",""
"","","","","","html-button-response","85","219866","0.0-69.0-0.0","view","long","None","","7880","
          <style>
            .test-trial-container {
              display: flex;
              align-items: center;
              justify-content: space-between;
              margin: 0 auto;
              max-width: 900px;
            }
            .test-stimulus {
              flex: 1;
              text-align: center;
            }
            .stimulus-box {
              border: 2px solid #ccc;
              padding: 20px;
              border-radius: 10px;
              display: inline-block;
              background-color: #f9f9f9;
            }
            .stimulus-image {
              height: 200px;
              max-width: 200px;
              object-fit: contain;
            }
            .interlocutor-image {
              height: 250px;
            }
            .button-spacing {
              margin-top: 30px;
            }
          </style>

         <div class=""test-trial-container"" style=""display: flex; justify-content: center; gap: 40px; align-items: flex-start;"">

        
        <div class=""stimulus-box"">
        <img src=""teststimuli/woman.svg"" class=""stimulus-image"">
        </div>

      
        <div class=""interlocutor-box"">
        <div class=""prompt-text"">What would I call this?</div>
        <div class=""button-spacing""></div>
        <img src=""interlocutor/elder_female.png"" class=""interlocutor-image"">
        </div>

        </div>

        <div class=""button-spacing""></div>
        ","0","true","Daprik","Dap","[""Daprul"",""Daprik""]","rik","female","front","","","false","","","",""
"","","","","","html-keyboard-response","86","220369","0.0-70.0","view","long","None","","null","<div style=""font-size: 48px;"">+</div>","null","","","","","","","","true","","","","","",""
"","","","","","html-button-response","87","224649","0.0-71.0-0.0","view","long","None","","4279","
          <style>
            .test-trial-container {
              display: flex;
              align-items: center;
              justify-content: space-between;
              margin: 0 auto;
              max-width: 900px;
            }
            .test-stimulus {
              flex: 1;
              text-align: center;
            }
            .stimulus-box {
              border: 2px solid #ccc;
              padding: 20px;
              border-radius: 10px;
              display: inline-block;
              background-color: #f9f9f9;
            }
            .stimulus-image {
              height: 200px;
              max-width: 200px;
              object-fit: contain;
            }
            .interlocutor-image {
              height: 250px;
            }
            .button-spacing {
              margin-top: 30px;
            }
          </style>

         <div class=""test-trial-container"" style=""display: flex; justify-content: center; gap: 40px; align-items: flex-start;"">

        
        <div class=""stimulus-box"">
        <img src=""teststimuli/chair.svg"" class=""stimulus-image"">
        </div>

      
        <div class=""interlocutor-box"">
        <div class=""prompt-text"">What would I call this?</div>
        <div class=""button-spacing""></div>
        <img src=""interlocutor/elder_female.png"" class=""interlocutor-image"">
        </div>

        </div>

        <div class=""button-spacing""></div>
        ","1","true","Yanrik","Yan","[""Yanrik"",""Yanrul""]","rik","female","front","","","false","","","",""
"","","","","","html-keyboard-response","88","225152","0.0-72.0","view","long","None","","null","<div style=""font-size: 48px;"">+</div>","null","","","","","","","","true","","","","","",""
"","","","","","html-button-response","89","228199","0.0-73.0-0.0","view","long","None","","3045","
          <style>
            .test-trial-container {
              display: flex;
              align-items: center;
              justify-content: space-between;
              margin: 0 auto;
              max-width: 900px;
            }
            .test-stimulus {
              flex: 1;
              text-align: center;
            }
            .stimulus-box {
              border: 2px solid #ccc;
              padding: 20px;
              border-radius: 10px;
              display: inline-block;
              background-color: #f9f9f9;
            }
            .stimulus-image {
              height: 200px;
              max-width: 200px;
              object-fit: contain;
            }
            .interlocutor-image {
              height: 250px;
            }
            .button-spacing {
              margin-top: 30px;
            }
          </style>

         <div class=""test-trial-container"" style=""display: flex; justify-content: center; gap: 40px; align-items: flex-start;"">

        
        <div class=""stimulus-box"">
        <img src=""teststimuli/horse.svg"" class=""stimulus-image"">
        </div>

      
        <div class=""interlocutor-box"">
        <div class=""prompt-text"">What would I call this?</div>
        <div class=""button-spacing""></div>
        <img src=""interlocutor/adult_male.png"" class=""interlocutor-image"">
        </div>

        </div>

        <div class=""button-spacing""></div>
        ","1","true","Bewrik","Bew","[""Bewrik"",""Bewrul""]","rik","male","front","","","false","","","",""
"","","","","","html-keyboard-response","90","228701","0.0-74.0","view","long","None","","null","<div style=""font-size: 48px;"">+</div>","null","","","","","","","","true","","","","","",""
"","","","","","html-button-response","91","231116","0.0-75.0-0.0","view","long","None","","2413","
          <style>
            .test-trial-container {
              display: flex;
              align-items: center;
              justify-content: space-between;
              margin: 0 auto;
              max-width: 900px;
            }
            .test-stimulus {
              flex: 1;
              text-align: center;
            }
            .stimulus-box {
              border: 2px solid #ccc;
              padding: 20px;
              border-radius: 10px;
              display: inline-block;
              background-color: #f9f9f9;
            }
            .stimulus-image {
              height: 200px;
              max-width: 200px;
              object-fit: contain;
            }
            .interlocutor-image {
              height: 250px;
            }
            .button-spacing {
              margin-top: 30px;
            }
          </style>

         <div class=""test-trial-container"" style=""display: flex; justify-content: center; gap: 40px; align-items: flex-start;"">

        
        <div class=""stimulus-box"">
        <img src=""teststimuli/car.svg"" class=""stimulus-image"">
        </div>

      
        <div class=""interlocutor-box"">
        <div class=""prompt-text"">What would I call this?</div>
        <div class=""button-spacing""></div>
        <img src=""interlocutor/elder_female_side.png"" class=""interlocutor-image"">
        </div>

        </div>

        <div class=""button-spacing""></div>
        ","0","true","Ronrul","Ron","[""Ronrul"",""Ronrik""]","rul","female","side","","","true","","","",""
"","","","","","html-keyboard-response","92","231618","0.0-76.0","view","long","None","","null","<div style=""font-size: 48px;"">+</div>","null","","","","","","","","true","","","","","",""
"","","","","","html-button-response","93","234232","0.0-77.0-0.0","view","long","None","","2612","
          <style>
            .test-trial-container {
              display: flex;
              align-items: center;
              justify-content: space-between;
              margin: 0 auto;
              max-width: 900px;
            }
            .test-stimulus {
              flex: 1;
              text-align: center;
            }
            .stimulus-box {
              border: 2px solid #ccc;
              padding: 20px;
              border-radius: 10px;
              display: inline-block;
              background-color: #f9f9f9;
            }
            .stimulus-image {
              height: 200px;
              max-width: 200px;
              object-fit: contain;
            }
            .interlocutor-image {
              height: 250px;
            }
            .button-spacing {
              margin-top: 30px;
            }
          </style>

         <div class=""test-trial-container"" style=""display: flex; justify-content: center; gap: 40px; align-items: flex-start;"">

        
        <div class=""stimulus-box"">
        <img src=""teststimuli/toothbrush.svg"" class=""stimulus-image"">
        </div>

      
        <div class=""interlocutor-box"">
        <div class=""prompt-text"">What would I call this?</div>
        <div class=""button-spacing""></div>
        <img src=""interlocutor/child_male_side.png"" class=""interlocutor-image"">
        </div>

        </div>

        <div class=""button-spacing""></div>
        ","1","true","Zanrul","Zan","[""Zanrik"",""Zanrul""]","rul","male","side","","","true","","","",""
"","","","","","html-keyboard-response","94","234733","0.0-78.0","view","long","None","","null","<div style=""font-size: 48px;"">+</div>","null","","","","","","","","true","","","","","",""
"","","","","","html-button-response","95","236932","0.0-79.0-0.0","view","long","None","","2198","
          <style>
            .test-trial-container {
              display: flex;
              align-items: center;
              justify-content: space-between;
              margin: 0 auto;
              max-width: 900px;
            }
            .test-stimulus {
              flex: 1;
              text-align: center;
            }
            .stimulus-box {
              border: 2px solid #ccc;
              padding: 20px;
              border-radius: 10px;
              display: inline-block;
              background-color: #f9f9f9;
            }
            .stimulus-image {
              height: 200px;
              max-width: 200px;
              object-fit: contain;
            }
            .interlocutor-image {
              height: 250px;
            }
            .button-spacing {
              margin-top: 30px;
            }
          </style>

         <div class=""test-trial-container"" style=""display: flex; justify-content: center; gap: 40px; align-items: flex-start;"">

        
        <div class=""stimulus-box"">
        <img src=""teststimuli/corn.svg"" class=""stimulus-image"">
        </div>

      
        <div class=""interlocutor-box"">
        <div class=""prompt-text"">What would I call this?</div>
        <div class=""button-spacing""></div>
        <img src=""interlocutor/child_female_02.png"" class=""interlocutor-image"">
        </div>

        </div>

        <div class=""button-spacing""></div>
        ","1","true","Lumrik","Lum","[""Lumrik"",""Lumrul""]","rik","female","front","","","false","","","",""
"","","","","","html-keyboard-response","96","237434","0.0-80.0","view","long","None","","null","<div style=""font-size: 48px;"">+</div>","null","","","","","","","","true","","","","","",""
"","","","","","html-button-response","97","239482","0.0-81.0-0.0","view","long","None","","2047","
          <style>
            .test-trial-container {
              display: flex;
              align-items: center;
              justify-content: space-between;
              margin: 0 auto;
              max-width: 900px;
            }
            .test-stimulus {
              flex: 1;
              text-align: center;
            }
            .stimulus-box {
              border: 2px solid #ccc;
              padding: 20px;
              border-radius: 10px;
              display: inline-block;
              background-color: #f9f9f9;
            }
            .stimulus-image {
              height: 200px;
              max-width: 200px;
              object-fit: contain;
            }
            .interlocutor-image {
              height: 250px;
            }
            .button-spacing {
              margin-top: 30px;
            }
          </style>

         <div class=""test-trial-container"" style=""display: flex; justify-content: center; gap: 40px; align-items: flex-start;"">

        
        <div class=""stimulus-box"">
        <img src=""teststimuli/candy.svg"" class=""stimulus-image"">
        </div>

      
        <div class=""interlocutor-box"">
        <div class=""prompt-text"">What would I call this?</div>
        <div class=""button-spacing""></div>
        <img src=""interlocutor/adult_female_02.png"" class=""interlocutor-image"">
        </div>

        </div>

        <div class=""button-spacing""></div>
        ","1","true","Wibrik","Wib","[""Wibrul"",""Wibrik""]","rik","female","front","","","true","","","",""
"","","","","","html-keyboard-response","98","239984","0.0-82.0","view","long","None","","null","<div style=""font-size: 48px;"">+</div>","null","","","","","","","","true","","","","","",""
"","","","","","html-button-response","99","241332","0.0-83.0-0.0","view","long","None","","1346","
          <style>
            .test-trial-container {
              display: flex;
              align-items: center;
              justify-content: space-between;
              margin: 0 auto;
              max-width: 900px;
            }
            .test-stimulus {
              flex: 1;
              text-align: center;
            }
            .stimulus-box {
              border: 2px solid #ccc;
              padding: 20px;
              border-radius: 10px;
              display: inline-block;
              background-color: #f9f9f9;
            }
            .stimulus-image {
              height: 200px;
              max-width: 200px;
              object-fit: contain;
            }
            .interlocutor-image {
              height: 250px;
            }
            .button-spacing {
              margin-top: 30px;
            }
          </style>

         <div class=""test-trial-container"" style=""display: flex; justify-content: center; gap: 40px; align-items: flex-start;"">

        
        <div class=""stimulus-box"">
        <img src=""teststimuli/bird.svg"" class=""stimulus-image"">
        </div>

      
        <div class=""interlocutor-box"">
        <div class=""prompt-text"">What would I call this?</div>
        <div class=""button-spacing""></div>
        <img src=""interlocutor/child_male_02.png"" class=""interlocutor-image"">
        </div>

        </div>

        <div class=""button-spacing""></div>
        ","0","true","Telrik","Tel","[""Telrul"",""Telrik""]","rik","male","front","","","false","","","",""
"","","","","","html-keyboard-response","100","241834","0.0-84.0","view","long","None","","null","<div style=""font-size: 48px;"">+</div>","null","","","","","","","","true","","","","","",""
"","","","","","html-button-response","101","243848","0.0-85.0-0.0","view","long","None","","2012","
          <style>
            .test-trial-container {
              display: flex;
              align-items: center;
              justify-content: space-between;
              margin: 0 auto;
              max-width: 900px;
            }
            .test-stimulus {
              flex: 1;
              text-align: center;
            }
            .stimulus-box {
              border: 2px solid #ccc;
              padding: 20px;
              border-radius: 10px;
              display: inline-block;
              background-color: #f9f9f9;
            }
            .stimulus-image {
              height: 200px;
              max-width: 200px;
              object-fit: contain;
            }
            .interlocutor-image {
              height: 250px;
            }
            .button-spacing {
              margin-top: 30px;
            }
          </style>

         <div class=""test-trial-container"" style=""display: flex; justify-content: center; gap: 40px; align-items: flex-start;"">

        
        <div class=""stimulus-box"">
        <img src=""teststimuli/man.svg"" class=""stimulus-image"">
        </div>

      
        <div class=""interlocutor-box"">
        <div class=""prompt-text"">What would I call this?</div>
        <div class=""button-spacing""></div>
        <img src=""interlocutor/child_female_02_side.png"" class=""interlocutor-image"">
        </div>

        </div>

        <div class=""button-spacing""></div>
        ","1","true","Tyrrul","Tyr","[""Tyrrik"",""Tyrrul""]","rul","female","side","","","true","","","",""
"","","","","","html-keyboard-response","102","244351","0.0-86.0","view","long","None","","null","<div style=""font-size: 48px;"">+</div>","null","","","","","","","","true","","","","","",""
"","","","","","html-button-response","103","274965","0.0-87.0-0.0","view","long","None","","30613","<p><strong>Attention Check</strong></p><p>Click the button labeled ""Right"".</p>","1","","","","","","","","","","true","","","attention-check","1"
"","","","","","html-button-response","104","276515","0.0-88.0-0.0","view","long","None","","1548","
          <style>
            .test-trial-container {
              display: flex;
              align-items: center;
              justify-content: space-between;
              margin: 0 auto;
              max-width: 900px;
            }
            .test-stimulus {
              flex: 1;
              text-align: center;
            }
            .stimulus-box {
              border: 2px solid #ccc;
              padding: 20px;
              border-radius: 10px;
              display: inline-block;
              background-color: #f9f9f9;
            }
            .stimulus-image {
              height: 200px;
              max-width: 200px;
              object-fit: contain;
            }
            .interlocutor-image {
              height: 250px;
            }
            .button-spacing {
              margin-top: 30px;
            }
          </style>

         <div class=""test-trial-container"" style=""display: flex; justify-content: center; gap: 40px; align-items: flex-start;"">

        
        <div class=""stimulus-box"">
        <img src=""teststimuli/school.svg"" class=""stimulus-image"">
        </div>

      
        <div class=""interlocutor-box"">
        <div class=""prompt-text"">What would I call this?</div>
        <div class=""button-spacing""></div>
        <img src=""interlocutor/elder_female_side.png"" class=""interlocutor-image"">
        </div>

        </div>

        <div class=""button-spacing""></div>
        ","1","true","Rivrul","Riv","[""Rivrik"",""Rivrul""]","rul","female","side","","","true","","","",""
"","","","","","html-keyboard-response","105","277016","0.0-89.0","view","long","None","","null","<div style=""font-size: 48px;"">+</div>","null","","","","","","","","true","","","","","",""
"","","","","","html-button-response","106","279064","0.0-90.0-0.0","view","long","None","","2046","
          <style>
            .test-trial-container {
              display: flex;
              align-items: center;
              justify-content: space-between;
              margin: 0 auto;
              max-width: 900px;
            }
            .test-stimulus {
              flex: 1;
              text-align: center;
            }
            .stimulus-box {
              border: 2px solid #ccc;
              padding: 20px;
              border-radius: 10px;
              display: inline-block;
              background-color: #f9f9f9;
            }
            .stimulus-image {
              height: 200px;
              max-width: 200px;
              object-fit: contain;
            }
            .interlocutor-image {
              height: 250px;
            }
            .button-spacing {
              margin-top: 30px;
            }
          </style>

         <div class=""test-trial-container"" style=""display: flex; justify-content: center; gap: 40px; align-items: flex-start;"">

        
        <div class=""stimulus-box"">
        <img src=""teststimuli/bell.svg"" class=""stimulus-image"">
        </div>

      
        <div class=""interlocutor-box"">
        <div class=""prompt-text"">What would I call this?</div>
        <div class=""button-spacing""></div>
        <img src=""interlocutor/child_female_03_side.png"" class=""interlocutor-image"">
        </div>

        </div>

        <div class=""button-spacing""></div>
        ","1","true","Mozrul","Moz","[""Mozrul"",""Mozrik""]","rul","female","side","","","false","","","",""
"","","","","","html-keyboard-response","107","279566","0.0-91.0","view","long","None","","null","<div style=""font-size: 48px;"">+</div>","null","","","","","","","","true","","","","","",""
"","","","","","html-button-response","108","286615","0.0-92.0-0.0","view","long","None","","7047","
          <style>
            .test-trial-container {
              display: flex;
              align-items: center;
              justify-content: space-between;
              margin: 0 auto;
              max-width: 900px;
            }
            .test-stimulus {
              flex: 1;
              text-align: center;
            }
            .stimulus-box {
              border: 2px solid #ccc;
              padding: 20px;
              border-radius: 10px;
              display: inline-block;
              background-color: #f9f9f9;
            }
            .stimulus-image {
              height: 200px;
              max-width: 200px;
              object-fit: contain;
            }
            .interlocutor-image {
              height: 250px;
            }
            .button-spacing {
              margin-top: 30px;
            }
          </style>

         <div class=""test-trial-container"" style=""display: flex; justify-content: center; gap: 40px; align-items: flex-start;"">

        
        <div class=""stimulus-box"">
        <img src=""teststimuli/globe.svg"" class=""stimulus-image"">
        </div>

      
        <div class=""interlocutor-box"">
        <div class=""prompt-text"">What would I call this?</div>
        <div class=""button-spacing""></div>
        <img src=""interlocutor/child_female_side.png"" class=""interlocutor-image"">
        </div>

        </div>

        <div class=""button-spacing""></div>
        ","0","true","Vekrul","Vek","[""Vekrul"",""Vekrik""]","rul","female","side","","","true","","","",""
"","","","","","html-keyboard-response","109","287117","0.0-93.0","view","long","None","","null","<div style=""font-size: 48px;"">+</div>","null","","","","","","","","true","","","","","",""
"","","","","","html-button-response","110","288514","0.0-94.0-0.0","view","long","None","","1396","
          <style>
            .test-trial-container {
              display: flex;
              align-items: center;
              justify-content: space-between;
              margin: 0 auto;
              max-width: 900px;
            }
            .test-stimulus {
              flex: 1;
              text-align: center;
            }
            .stimulus-box {
              border: 2px solid #ccc;
              padding: 20px;
              border-radius: 10px;
              display: inline-block;
              background-color: #f9f9f9;
            }
            .stimulus-image {
              height: 200px;
              max-width: 200px;
              object-fit: contain;
            }
            .interlocutor-image {
              height: 250px;
            }
            .button-spacing {
              margin-top: 30px;
            }
          </style>

         <div class=""test-trial-container"" style=""display: flex; justify-content: center; gap: 40px; align-items: flex-start;"">

        
        <div class=""stimulus-box"">
        <img src=""teststimuli/cherry.svg"" class=""stimulus-image"">
        </div>

      
        <div class=""interlocutor-box"">
        <div class=""prompt-text"">What would I call this?</div>
        <div class=""button-spacing""></div>
        <img src=""interlocutor/adult_male_02.png"" class=""interlocutor-image"">
        </div>

        </div>

        <div class=""button-spacing""></div>
        ","1","true","Fumrik","Fum","[""Fumrul"",""Fumrik""]","rik","male","front","","","true","","","",""
"","","","","","html-keyboard-response","111","289016","0.0-95.0","view","long","None","","null","<div style=""font-size: 48px;"">+</div>","null","","","","","","","","true","","","","","",""
"","","","","","survey-text","112","300599","0.0-96.0","view","long","None","","11573","","{""Q0"":""None""}","","","","","","","","","","","","","",""
