"success","timeout","failed_images","failed_audio","failed_video","trial_type","trial_index","time_elapsed","internal_node_id","main_cue","condition","cue_guess","view_history","rt","stimulus","response","test_trial","correct_choice","prompt_label","choices","suffix","gender","view","is_fixation","attention_check","correct","typed_response","expected_label","task","correct_response"
"true","false","[]","[]","[]","preload","0","16","0.0-0.0","view","short","none","","","","","","","","","","","","","","","","","",""
"","","","","","instructions","1","2884","0.0-1.0","view","short","none","[{""page_index"":0,""viewing_time"":2867}]","2867","","","","","","","","","","","","","","","",""
"","","","","","instructions","2","4289","0.0-2.0","view","short","none","[{""page_index"":0,""viewing_time"":1404}]","1405","","","","","","","","","","","","","","","",""
"","","","","","html-button-response","3","13947","0.0-3.0-0.0","view","short","none","","9655","
          <style>
            .quote-box {
              border: 2px solid #ccc;
              padding: 16px;
              margin: 20px auto;
              border-radius: 8px;
              background-color: #ffffff;
              text-align: center;
            }
            .stimuli-image {
              display: block;
              margin: 10px auto;
              max-height: 150px;
            }
            .button-spacing {
              margin-top: 30px;
            }
          </style>

          <div style=""display: flex; align-items: center;"">
            <div style=""flex: 1; padding-right: 20px;"">
              <div class=""quote-box"">
                <p>This is called <strong>Ola</strong>.</p>
                <img src=""stimuli/basket_small.png"" class=""stimuli-image"">
              </div>

              <p style=""text-align: center;"">What is this called?</p>

              <div class=""quote-box"">
                <img src=""stimuli/basket_large.png"" class=""stimuli-image"">
              </div>

              <div class=""button-spacing""></div>
            </div>

            <div style=""flex-shrink: 0; width: 180px; height: 250px; display: flex; align-items: center; justify-content: center;"">
            <img src=""interlocutor/child_male_side.png"" style=""width: 100%; height: 100%; object-fit: contain;"" />
            </div>
        ","1","false","Olarul","Ola","[""Olarik"",""Olarul""]","rul","male","side","false","false","true","","","",""
"","","","","","html-keyboard-response","4","14457","0.0-4.0","view","short","none","","null","<div style=""font-size: 48px;"">+</div>","null","","","","","","","","true","","","","","",""
"","","","","","html-button-response","5","27718","0.0-5.0-0.0","view","short","none","","13259","
          <style>
            .quote-box {
              border: 2px solid #ccc;
              padding: 16px;
              margin: 20px auto;
              border-radius: 8px;
              background-color: #ffffff;
              text-align: center;
            }
            .stimuli-image {
              display: block;
              margin: 10px auto;
              max-height: 150px;
            }
            .button-spacing {
              margin-top: 30px;
            }
          </style>

          <div style=""display: flex; align-items: center;"">
            <div style=""flex: 1; padding-right: 20px;"">
              <div class=""quote-box"">
                <p>This is called <strong>Fon</strong>.</p>
                <img src=""stimuli/drawer.png"" class=""stimuli-image"">
              </div>

              <p style=""text-align: center;"">What is this called?</p>

              <div class=""quote-box"">
                <img src=""stimuli/warddrobe.jpg"" class=""stimuli-image"">
              </div>

              <div class=""button-spacing""></div>
            </div>

            <div style=""flex-shrink: 0; width: 180px; height: 250px; display: flex; align-items: center; justify-content: center;"">
            <img src=""interlocutor/child_male.png"" style=""width: 100%; height: 100%; object-fit: contain;"" />
            </div>
        ","1","false","Fonrik","Fon","[""Fonrik"",""Fonrul""]","rik","male","front","false","false","false","","","",""
"","","","","","html-keyboard-response","6","28727","0.0-5.0-1.0-0.0","view","short","none","","null","<p style='color:red; font-size: 24px;'>Incorrect! Please try again.</p>","null","","","","","","","","","","","","","",""
"","","","","","html-button-response","7","33517","0.0-5.1-0.1","view","short","none","","4787","
          <style>
            .quote-box {
              border: 2px solid #ccc;
              padding: 16px;
              margin: 20px auto;
              border-radius: 8px;
              background-color: #ffffff;
              text-align: center;
            }
            .stimuli-image {
              display: block;
              margin: 10px auto;
              max-height: 150px;
            }
            .button-spacing {
              margin-top: 30px;
            }
          </style>

          <div style=""display: flex; align-items: center;"">
            <div style=""flex: 1; padding-right: 20px;"">
              <div class=""quote-box"">
                <p>This is called <strong>Fon</strong>.</p>
                <img src=""stimuli/drawer.png"" class=""stimuli-image"">
              </div>

              <p style=""text-align: center;"">What is this called?</p>

              <div class=""quote-box"">
                <img src=""stimuli/warddrobe.jpg"" class=""stimuli-image"">
              </div>

              <div class=""button-spacing""></div>
            </div>

            <div style=""flex-shrink: 0; width: 180px; height: 250px; display: flex; align-items: center; justify-content: center;"">
            <img src=""interlocutor/child_male.png"" style=""width: 100%; height: 100%; object-fit: contain;"" />
            </div>
        ","0","false","Fonrik","Fon","[""Fonrik"",""Fonrul""]","rik","male","front","false","false","true","","","",""
"","","","","","html-keyboard-response","8","34020","0.0-6.0","view","short","none","","null","<div style=""font-size: 48px;"">+</div>","null","","","","","","","","true","","","","","",""
"","","","","","html-button-response","9","44237","0.0-7.0-0.0","view","short","none","","10215","
          <style>
            .quote-box {
              border: 2px solid #ccc;
              padding: 16px;
              margin: 20px auto;
              border-radius: 8px;
              background-color: #ffffff;
              text-align: center;
            }
            .stimuli-image {
              display: block;
              margin: 10px auto;
              max-height: 150px;
            }
            .button-spacing {
              margin-top: 30px;
            }
          </style>

          <div style=""display: flex; align-items: center;"">
            <div style=""flex: 1; padding-right: 20px;"">
              <div class=""quote-box"">
                <p>This is called <strong>Mox</strong>.</p>
                <img src=""stimuli/small_boat.jpg"" class=""stimuli-image"">
              </div>

              <p style=""text-align: center;"">What is this called?</p>

              <div class=""quote-box"">
                <img src=""stimuli/large_boat.png"" class=""stimuli-image"">
              </div>

              <div class=""button-spacing""></div>
            </div>

            <div style=""flex-shrink: 0; width: 180px; height: 250px; display: flex; align-items: center; justify-content: center;"">
            <img src=""interlocutor/adult_female.png"" style=""width: 100%; height: 100%; object-fit: contain;"" />
            </div>
        ","1","false","Moxrik","Mox","[""Moxrik"",""Moxrul""]","rik","female","front","false","false","false","","","",""
"","","","","","html-keyboard-response","10","45248","0.0-7.0-1.0-0.0","view","short","none","","null","<p style='color:red; font-size: 24px;'>Incorrect! Please try again.</p>","null","","","","","","","","","","","","","",""
"","","","","","html-button-response","11","49010","0.0-7.1-0.1","view","short","none","","3761","
          <style>
            .quote-box {
              border: 2px solid #ccc;
              padding: 16px;
              margin: 20px auto;
              border-radius: 8px;
              background-color: #ffffff;
              text-align: center;
            }
            .stimuli-image {
              display: block;
              margin: 10px auto;
              max-height: 150px;
            }
            .button-spacing {
              margin-top: 30px;
            }
          </style>

          <div style=""display: flex; align-items: center;"">
            <div style=""flex: 1; padding-right: 20px;"">
              <div class=""quote-box"">
                <p>This is called <strong>Mox</strong>.</p>
                <img src=""stimuli/small_boat.jpg"" class=""stimuli-image"">
              </div>

              <p style=""text-align: center;"">What is this called?</p>

              <div class=""quote-box"">
                <img src=""stimuli/large_boat.png"" class=""stimuli-image"">
              </div>

              <div class=""button-spacing""></div>
            </div>

            <div style=""flex-shrink: 0; width: 180px; height: 250px; display: flex; align-items: center; justify-content: center;"">
            <img src=""interlocutor/adult_female.png"" style=""width: 100%; height: 100%; object-fit: contain;"" />
            </div>
        ","0","false","Moxrik","Mox","[""Moxrik"",""Moxrul""]","rik","female","front","false","false","true","","","",""
"","","","","","html-keyboard-response","12","49517","0.0-8.0","view","short","none","","null","<div style=""font-size: 48px;"">+</div>","null","","","","","","","","true","","","","","",""
"","","","","","survey-text","13","61467","0.0-9.0-0.0","view","short","none","","11942","","{""Q0"":""moxrik""}","","","","","","","","","true","true","moxrik","moxrik","",""
"","","","","","html-button-response","14","66807","0.0-10.0-0.0","view","short","none","","5338","
          <style>
            .quote-box {
              border: 2px solid #ccc;
              padding: 16px;
              margin: 20px auto;
              border-radius: 8px;
              background-color: #ffffff;
              text-align: center;
            }
            .stimuli-image {
              display: block;
              margin: 10px auto;
              max-height: 150px;
            }
            .button-spacing {
              margin-top: 30px;
            }
          </style>

          <div style=""display: flex; align-items: center;"">
            <div style=""flex: 1; padding-right: 20px;"">
              <div class=""quote-box"">
                <p>This is called <strong>Han</strong>.</p>
                <img src=""stimuli/chair_adult_02.png"" class=""stimuli-image"">
              </div>

              <p style=""text-align: center;"">What is this called?</p>

              <div class=""quote-box"">
                <img src=""stimuli/chair_small.png"" class=""stimuli-image"">
              </div>

              <div class=""button-spacing""></div>
            </div>

            <div style=""flex-shrink: 0; width: 180px; height: 250px; display: flex; align-items: center; justify-content: center;"">
            <img src=""interlocutor/child_male_side.png"" style=""width: 100%; height: 100%; object-fit: contain;"" />
            </div>
        ","1","false","Hanrul","Han","[""Hanrik"",""Hanrul""]","rul","male","side","false","false","true","","","",""
"","","","","","html-keyboard-response","15","67319","0.0-11.0","view","short","none","","null","<div style=""font-size: 48px;"">+</div>","null","","","","","","","","true","","","","","",""
"","","","","","html-button-response","16","85535","0.0-12.0-0.0","view","short","none","","18213","
          <style>
            .quote-box {
              border: 2px solid #ccc;
              padding: 16px;
              margin: 20px auto;
              border-radius: 8px;
              background-color: #ffffff;
              text-align: center;
            }
            .stimuli-image {
              display: block;
              margin: 10px auto;
              max-height: 150px;
            }
            .button-spacing {
              margin-top: 30px;
            }
          </style>

          <div style=""display: flex; align-items: center;"">
            <div style=""flex: 1; padding-right: 20px;"">
              <div class=""quote-box"">
                <p>This is called <strong>Fek</strong>.</p>
                <img src=""stimuli/fox_adult_male_01.png"" class=""stimuli-image"">
              </div>

              <p style=""text-align: center;"">What is this called?</p>

              <div class=""quote-box"">
                <img src=""stimuli/fox_child_01.png"" class=""stimuli-image"">
              </div>

              <div class=""button-spacing""></div>
            </div>

            <div style=""flex-shrink: 0; width: 180px; height: 250px; display: flex; align-items: center; justify-content: center;"">
            <img src=""interlocutor/child_male.png"" style=""width: 100%; height: 100%; object-fit: contain;"" />
            </div>
        ","1","false","Fekrik","Fek","[""Fekrik"",""Fekrul""]","rik","male","front","false","false","false","","","",""
"","","","","","html-keyboard-response","17","86538","0.0-12.0-1.0-0.0","view","short","none","","null","<p style='color:red; font-size: 24px;'>Incorrect! Please try again.</p>","null","","","","","","","","","","","","","",""
"","","","","","html-button-response","18","89099","0.0-12.1-0.1","view","short","none","","2560","
          <style>
            .quote-box {
              border: 2px solid #ccc;
              padding: 16px;
              margin: 20px auto;
              border-radius: 8px;
              background-color: #ffffff;
              text-align: center;
            }
            .stimuli-image {
              display: block;
              margin: 10px auto;
              max-height: 150px;
            }
            .button-spacing {
              margin-top: 30px;
            }
          </style>

          <div style=""display: flex; align-items: center;"">
            <div style=""flex: 1; padding-right: 20px;"">
              <div class=""quote-box"">
                <p>This is called <strong>Fek</strong>.</p>
                <img src=""stimuli/fox_adult_male_01.png"" class=""stimuli-image"">
              </div>

              <p style=""text-align: center;"">What is this called?</p>

              <div class=""quote-box"">
                <img src=""stimuli/fox_child_01.png"" class=""stimuli-image"">
              </div>

              <div class=""button-spacing""></div>
            </div>

            <div style=""flex-shrink: 0; width: 180px; height: 250px; display: flex; align-items: center; justify-content: center;"">
            <img src=""interlocutor/child_male.png"" style=""width: 100%; height: 100%; object-fit: contain;"" />
            </div>
        ","0","false","Fekrik","Fek","[""Fekrik"",""Fekrul""]","rik","male","front","false","false","true","","","",""
"","","","","","html-keyboard-response","19","89602","0.0-13.0","view","short","none","","null","<div style=""font-size: 48px;"">+</div>","null","","","","","","","","true","","","","","",""
"","","","","","html-button-response","20","120786","0.0-14.0-0.0","view","short","none","","31181","
          <style>
            .quote-box {
              border: 2px solid #ccc;
              padding: 16px;
              margin: 20px auto;
              border-radius: 8px;
              background-color: #ffffff;
              text-align: center;
            }
            .stimuli-image {
              display: block;
              margin: 10px auto;
              max-height: 150px;
            }
            .button-spacing {
              margin-top: 30px;
            }
          </style>

          <div style=""display: flex; align-items: center;"">
            <div style=""flex: 1; padding-right: 20px;"">
              <div class=""quote-box"">
                <p>This is called <strong>Ibo</strong>.</p>
                <img src=""stimuli/daisy_adult.png"" class=""stimuli-image"">
              </div>

              <p style=""text-align: center;"">What is this called?</p>

              <div class=""quote-box"">
                <img src=""stimuli/daisy_small.png"" class=""stimuli-image"">
              </div>

              <div class=""button-spacing""></div>
            </div>

            <div style=""flex-shrink: 0; width: 180px; height: 250px; display: flex; align-items: center; justify-content: center;"">
            <img src=""interlocutor/adult_female.png"" style=""width: 100%; height: 100%; object-fit: contain;"" />
            </div>
        ","1","false","Iborik","Ibo","[""Iborik"",""Iborul""]","rik","female","front","false","false","false","","","",""
"","","","","","html-keyboard-response","21","121797","0.0-14.0-1.0-0.0","view","short","none","","null","<p style='color:red; font-size: 24px;'>Incorrect! Please try again.</p>","null","","","","","","","","","","","","","",""
"","","","","","html-button-response","22","125735","0.0-14.1-0.1","view","short","none","","3936","
          <style>
            .quote-box {
              border: 2px solid #ccc;
              padding: 16px;
              margin: 20px auto;
              border-radius: 8px;
              background-color: #ffffff;
              text-align: center;
            }
            .stimuli-image {
              display: block;
              margin: 10px auto;
              max-height: 150px;
            }
            .button-spacing {
              margin-top: 30px;
            }
          </style>

          <div style=""display: flex; align-items: center;"">
            <div style=""flex: 1; padding-right: 20px;"">
              <div class=""quote-box"">
                <p>This is called <strong>Ibo</strong>.</p>
                <img src=""stimuli/daisy_adult.png"" class=""stimuli-image"">
              </div>

              <p style=""text-align: center;"">What is this called?</p>

              <div class=""quote-box"">
                <img src=""stimuli/daisy_small.png"" class=""stimuli-image"">
              </div>

              <div class=""button-spacing""></div>
            </div>

            <div style=""flex-shrink: 0; width: 180px; height: 250px; display: flex; align-items: center; justify-content: center;"">
            <img src=""interlocutor/adult_female.png"" style=""width: 100%; height: 100%; object-fit: contain;"" />
            </div>
        ","0","false","Iborik","Ibo","[""Iborik"",""Iborul""]","rik","female","front","false","false","true","","","",""
"","","","","","html-keyboard-response","23","126240","0.0-15.0","view","short","none","","null","<div style=""font-size: 48px;"">+</div>","null","","","","","","","","true","","","","","",""
"","","","","","survey-text","24","136553","0.0-16.0-0.0","view","short","none","","10311","","{""Q0"":""iborik""}","","","","","","","","","true","true","iborik","iborik","",""
"","","","","","html-button-response","25","144116","0.0-17.0-0.0","view","short","none","","7560","
          <style>
            .quote-box {
              border: 2px solid #ccc;
              padding: 16px;
              margin: 20px auto;
              border-radius: 8px;
              background-color: #ffffff;
              text-align: center;
            }
            .stimuli-image {
              display: block;
              margin: 10px auto;
              max-height: 150px;
            }
            .button-spacing {
              margin-top: 30px;
            }
          </style>

          <div style=""display: flex; align-items: center;"">
            <div style=""flex: 1; padding-right: 20px;"">
              <div class=""quote-box"">
                <p>This is called <strong>Hux</strong>.</p>
                <img src=""stimuli/pitcher_adult_01.png"" class=""stimuli-image"">
              </div>

              <p style=""text-align: center;"">What is this called?</p>

              <div class=""quote-box"">
                <img src=""stimuli/pitcher_child_01.png"" class=""stimuli-image"">
              </div>

              <div class=""button-spacing""></div>
            </div>

            <div style=""flex-shrink: 0; width: 180px; height: 250px; display: flex; align-items: center; justify-content: center;"">
            <img src=""interlocutor/adult_female_side.png"" style=""width: 100%; height: 100%; object-fit: contain;"" />
            </div>
        ","1","false","Huxrul","Hux","[""Huxrik"",""Huxrul""]","rul","female","side","false","false","true","","","",""
"","","","","","html-keyboard-response","26","144620","0.0-18.0","view","short","none","","null","<div style=""font-size: 48px;"">+</div>","null","","","","","","","","true","","","","","",""
"","","","","","html-button-response","27","152059","0.0-19.0-0.0","view","short","none","","7438","
          <style>
            .quote-box {
              border: 2px solid #ccc;
              padding: 16px;
              margin: 20px auto;
              border-radius: 8px;
              background-color: #ffffff;
              text-align: center;
            }
            .stimuli-image {
              display: block;
              margin: 10px auto;
              max-height: 150px;
            }
            .button-spacing {
              margin-top: 30px;
            }
          </style>

          <div style=""display: flex; align-items: center;"">
            <div style=""flex: 1; padding-right: 20px;"">
              <div class=""quote-box"">
                <p>This is called <strong>Nuv</strong>.</p>
                <img src=""stimuli/asteroid_small.png"" class=""stimuli-image"">
              </div>

              <p style=""text-align: center;"">What is this called?</p>

              <div class=""quote-box"">
                <img src=""stimuli/asteroid_large.jpg"" class=""stimuli-image"">
              </div>

              <div class=""button-spacing""></div>
            </div>

            <div style=""flex-shrink: 0; width: 180px; height: 250px; display: flex; align-items: center; justify-content: center;"">
            <img src=""interlocutor/adult_female_side.png"" style=""width: 100%; height: 100%; object-fit: contain;"" />
            </div>
        ","0","false","Nuvrul","Nuv","[""Nuvrik"",""Nuvrul""]","rul","female","side","false","false","false","","","",""
"","","","","","html-keyboard-response","28","153063","0.0-19.0-1.0-0.0","view","short","none","","null","<p style='color:red; font-size: 24px;'>Incorrect! Please try again.</p>","null","","","","","","","","","","","","","",""
"","","","","","html-button-response","29","156764","0.0-19.1-0.1","view","short","none","","3698","
          <style>
            .quote-box {
              border: 2px solid #ccc;
              padding: 16px;
              margin: 20px auto;
              border-radius: 8px;
              background-color: #ffffff;
              text-align: center;
            }
            .stimuli-image {
              display: block;
              margin: 10px auto;
              max-height: 150px;
            }
            .button-spacing {
              margin-top: 30px;
            }
          </style>

          <div style=""display: flex; align-items: center;"">
            <div style=""flex: 1; padding-right: 20px;"">
              <div class=""quote-box"">
                <p>This is called <strong>Nuv</strong>.</p>
                <img src=""stimuli/asteroid_small.png"" class=""stimuli-image"">
              </div>

              <p style=""text-align: center;"">What is this called?</p>

              <div class=""quote-box"">
                <img src=""stimuli/asteroid_large.jpg"" class=""stimuli-image"">
              </div>

              <div class=""button-spacing""></div>
            </div>

            <div style=""flex-shrink: 0; width: 180px; height: 250px; display: flex; align-items: center; justify-content: center;"">
            <img src=""interlocutor/adult_female_side.png"" style=""width: 100%; height: 100%; object-fit: contain;"" />
            </div>
        ","1","false","Nuvrul","Nuv","[""Nuvrik"",""Nuvrul""]","rul","female","side","false","false","true","","","",""
"","","","","","html-keyboard-response","30","157269","0.0-20.0","view","short","none","","null","<div style=""font-size: 48px;"">+</div>","null","","","","","","","","true","","","","","",""
"","","","","","html-button-response","31","162538","0.0-21.0-0.0","view","short","none","","5268","
          <style>
            .quote-box {
              border: 2px solid #ccc;
              padding: 16px;
              margin: 20px auto;
              border-radius: 8px;
              background-color: #ffffff;
              text-align: center;
            }
            .stimuli-image {
              display: block;
              margin: 10px auto;
              max-height: 150px;
            }
            .button-spacing {
              margin-top: 30px;
            }
          </style>

          <div style=""display: flex; align-items: center;"">
            <div style=""flex: 1; padding-right: 20px;"">
              <div class=""quote-box"">
                <p>This is called <strong>Ara</strong>.</p>
                <img src=""stimuli/camera_large.jpg"" class=""stimuli-image"">
              </div>

              <p style=""text-align: center;"">What is this called?</p>

              <div class=""quote-box"">
                <img src=""stimuli/camera_small.jpg"" class=""stimuli-image"">
              </div>

              <div class=""button-spacing""></div>
            </div>

            <div style=""flex-shrink: 0; width: 180px; height: 250px; display: flex; align-items: center; justify-content: center;"">
            <img src=""interlocutor/adult_female.png"" style=""width: 100%; height: 100%; object-fit: contain;"" />
            </div>
        ","1","false","Ararik","Ara","[""Ararik"",""Ararul""]","rik","female","front","false","false","false","","","",""
"","","","","","html-keyboard-response","32","163545","0.0-21.0-1.0-0.0","view","short","none","","null","<p style='color:red; font-size: 24px;'>Incorrect! Please try again.</p>","null","","","","","","","","","","","","","",""
"","","","","","html-button-response","33","166806","0.0-21.1-0.1","view","short","none","","3259","
          <style>
            .quote-box {
              border: 2px solid #ccc;
              padding: 16px;
              margin: 20px auto;
              border-radius: 8px;
              background-color: #ffffff;
              text-align: center;
            }
            .stimuli-image {
              display: block;
              margin: 10px auto;
              max-height: 150px;
            }
            .button-spacing {
              margin-top: 30px;
            }
          </style>

          <div style=""display: flex; align-items: center;"">
            <div style=""flex: 1; padding-right: 20px;"">
              <div class=""quote-box"">
                <p>This is called <strong>Ara</strong>.</p>
                <img src=""stimuli/camera_large.jpg"" class=""stimuli-image"">
              </div>

              <p style=""text-align: center;"">What is this called?</p>

              <div class=""quote-box"">
                <img src=""stimuli/camera_small.jpg"" class=""stimuli-image"">
              </div>

              <div class=""button-spacing""></div>
            </div>

            <div style=""flex-shrink: 0; width: 180px; height: 250px; display: flex; align-items: center; justify-content: center;"">
            <img src=""interlocutor/adult_female.png"" style=""width: 100%; height: 100%; object-fit: contain;"" />
            </div>
        ","0","false","Ararik","Ara","[""Ararik"",""Ararul""]","rik","female","front","false","false","true","","","",""
"","","","","","html-keyboard-response","34","167315","0.0-22.0","view","short","none","","null","<div style=""font-size: 48px;"">+</div>","null","","","","","","","","true","","","","","",""
"","","","","","survey-text","35","174778","0.0-23.0-0.0","view","short","none","","7459","","{""Q0"":""araraki""}","","","","","","","","","true","false","araraki","ararik","",""
"","","","","","instructions","36","180092","0.0-24.0","view","short","none","[{""page_index"":0,""viewing_time"":5313}]","5313","","","","","","","","","","","","","","","",""
"","","","","","html-button-response","37","183902","0.0-25.0-0.0","view","short","none","","3809","
          <style>
            .test-trial-container {
              display: flex;
              align-items: center;
              justify-content: space-between;
              margin: 0 auto;
              max-width: 900px;
            }
            .test-stimulus {
              flex: 1;
              text-align: center;
            }
            .stimulus-box {
              border: 2px solid #ccc;
              padding: 20px;
              border-radius: 10px;
              display: inline-block;
              background-color: #f9f9f9;
            }
            .stimulus-image {
              height: 200px;
              max-width: 200px;
              object-fit: contain;
            }
            .interlocutor-image {
              height: 250px;
            }
            .button-spacing {
              margin-top: 30px;
            }
          </style>

         <div class=""test-trial-container"" style=""display: flex; justify-content: center; gap: 40px; align-items: flex-start;"">

        
        <div class=""stimulus-box"">
        <img src=""teststimuli/tree.svg"" class=""stimulus-image"">
        </div>

      
        <div class=""interlocutor-box"">
        <div class=""prompt-text"">What would I call this?</div>
        <div class=""button-spacing""></div>
        <img src=""interlocutor/adult_female_02.png"" class=""interlocutor-image"">
        </div>

        </div>

        <div class=""button-spacing""></div>
        ","0","true","Jorrik","Jor","[""Jorrul"",""Jorrik""]","rik","female","front","","","false","","","",""
"","","","","","html-keyboard-response","38","184412","0.0-26.0","view","short","none","","null","<div style=""font-size: 48px;"">+</div>","null","","","","","","","","true","","","","","",""
"","","","","","html-button-response","39","191500","0.0-27.0-0.0","view","short","none","","7087","
          <style>
            .test-trial-container {
              display: flex;
              align-items: center;
              justify-content: space-between;
              margin: 0 auto;
              max-width: 900px;
            }
            .test-stimulus {
              flex: 1;
              text-align: center;
            }
            .stimulus-box {
              border: 2px solid #ccc;
              padding: 20px;
              border-radius: 10px;
              display: inline-block;
              background-color: #f9f9f9;
            }
            .stimulus-image {
              height: 200px;
              max-width: 200px;
              object-fit: contain;
            }
            .interlocutor-image {
              height: 250px;
            }
            .button-spacing {
              margin-top: 30px;
            }
          </style>

         <div class=""test-trial-container"" style=""display: flex; justify-content: center; gap: 40px; align-items: flex-start;"">

        
        <div class=""stimulus-box"">
        <img src=""teststimuli/school.svg"" class=""stimulus-image"">
        </div>

      
        <div class=""interlocutor-box"">
        <div class=""prompt-text"">What would I call this?</div>
        <div class=""button-spacing""></div>
        <img src=""interlocutor/child_female_side.png"" class=""interlocutor-image"">
        </div>

        </div>

        <div class=""button-spacing""></div>
        ","0","true","Rivrul","Riv","[""Rivrik"",""Rivrul""]","rul","female","side","","","false","","","",""
"","","","","","html-keyboard-response","40","192007","0.0-28.0","view","short","none","","null","<div style=""font-size: 48px;"">+</div>","null","","","","","","","","true","","","","","",""
"","","","","","html-button-response","41","197236","0.0-29.0-0.0","view","short","none","","5228","
          <style>
            .test-trial-container {
              display: flex;
              align-items: center;
              justify-content: space-between;
              margin: 0 auto;
              max-width: 900px;
            }
            .test-stimulus {
              flex: 1;
              text-align: center;
            }
            .stimulus-box {
              border: 2px solid #ccc;
              padding: 20px;
              border-radius: 10px;
              display: inline-block;
              background-color: #f9f9f9;
            }
            .stimulus-image {
              height: 200px;
              max-width: 200px;
              object-fit: contain;
            }
            .interlocutor-image {
              height: 250px;
            }
            .button-spacing {
              margin-top: 30px;
            }
          </style>

         <div class=""test-trial-container"" style=""display: flex; justify-content: center; gap: 40px; align-items: flex-start;"">

        
        <div class=""stimulus-box"">
        <img src=""teststimuli/globe.svg"" class=""stimulus-image"">
        </div>

      
        <div class=""interlocutor-box"">
        <div class=""prompt-text"">What would I call this?</div>
        <div class=""button-spacing""></div>
        <img src=""interlocutor/child_male_side.png"" class=""interlocutor-image"">
        </div>

        </div>

        <div class=""button-spacing""></div>
        ","1","true","Vekrul","Vek","[""Vekrik"",""Vekrul""]","rul","male","side","","","true","","","",""
"","","","","","html-keyboard-response","42","197743","0.0-30.0","view","short","none","","null","<div style=""font-size: 48px;"">+</div>","null","","","","","","","","true","","","","","",""
"","","","","","html-button-response","43","202632","0.0-31.0-0.0","view","short","none","","4887","
          <style>
            .test-trial-container {
              display: flex;
              align-items: center;
              justify-content: space-between;
              margin: 0 auto;
              max-width: 900px;
            }
            .test-stimulus {
              flex: 1;
              text-align: center;
            }
            .stimulus-box {
              border: 2px solid #ccc;
              padding: 20px;
              border-radius: 10px;
              display: inline-block;
              background-color: #f9f9f9;
            }
            .stimulus-image {
              height: 200px;
              max-width: 200px;
              object-fit: contain;
            }
            .interlocutor-image {
              height: 250px;
            }
            .button-spacing {
              margin-top: 30px;
            }
          </style>

         <div class=""test-trial-container"" style=""display: flex; justify-content: center; gap: 40px; align-items: flex-start;"">

        
        <div class=""stimulus-box"">
        <img src=""teststimuli/car.svg"" class=""stimulus-image"">
        </div>

      
        <div class=""interlocutor-box"">
        <div class=""prompt-text"">What would I call this?</div>
        <div class=""button-spacing""></div>
        <img src=""interlocutor/adult_male_side.png"" class=""interlocutor-image"">
        </div>

        </div>

        <div class=""button-spacing""></div>
        ","0","true","Ronrul","Ron","[""Ronrul"",""Ronrik""]","rul","male","side","","","true","","","",""
"","","","","","html-keyboard-response","44","203142","0.0-32.0","view","short","none","","null","<div style=""font-size: 48px;"">+</div>","null","","","","","","","","true","","","","","",""
"","","","","","html-button-response","45","212024","0.0-33.0-0.0","view","short","none","","8880","
          <style>
            .test-trial-container {
              display: flex;
              align-items: center;
              justify-content: space-between;
              margin: 0 auto;
              max-width: 900px;
            }
            .test-stimulus {
              flex: 1;
              text-align: center;
            }
            .stimulus-box {
              border: 2px solid #ccc;
              padding: 20px;
              border-radius: 10px;
              display: inline-block;
              background-color: #f9f9f9;
            }
            .stimulus-image {
              height: 200px;
              max-width: 200px;
              object-fit: contain;
            }
            .interlocutor-image {
              height: 250px;
            }
            .button-spacing {
              margin-top: 30px;
            }
          </style>

         <div class=""test-trial-container"" style=""display: flex; justify-content: center; gap: 40px; align-items: flex-start;"">

        
        <div class=""stimulus-box"">
        <img src=""teststimuli/sandwich.svg"" class=""stimulus-image"">
        </div>

      
        <div class=""interlocutor-box"">
        <div class=""prompt-text"">What would I call this?</div>
        <div class=""button-spacing""></div>
        <img src=""interlocutor/elder_male_side.png"" class=""interlocutor-image"">
        </div>

        </div>

        <div class=""button-spacing""></div>
        ","1","true","Nixrul","Nix","[""Nixrul"",""Nixrik""]","rul","male","side","","","false","","","",""
"","","","","","html-keyboard-response","46","212526","0.0-34.0","view","short","none","","null","<div style=""font-size: 48px;"">+</div>","null","","","","","","","","true","","","","","",""
"","","","","","html-button-response","47","217576","0.0-35.0-0.0","view","short","none","","5049","
          <style>
            .test-trial-container {
              display: flex;
              align-items: center;
              justify-content: space-between;
              margin: 0 auto;
              max-width: 900px;
            }
            .test-stimulus {
              flex: 1;
              text-align: center;
            }
            .stimulus-box {
              border: 2px solid #ccc;
              padding: 20px;
              border-radius: 10px;
              display: inline-block;
              background-color: #f9f9f9;
            }
            .stimulus-image {
              height: 200px;
              max-width: 200px;
              object-fit: contain;
            }
            .interlocutor-image {
              height: 250px;
            }
            .button-spacing {
              margin-top: 30px;
            }
          </style>

         <div class=""test-trial-container"" style=""display: flex; justify-content: center; gap: 40px; align-items: flex-start;"">

        
        <div class=""stimulus-box"">
        <img src=""stimuli/bokchoy_adult_01.png"" class=""stimulus-image"">
        </div>

      
        <div class=""interlocutor-box"">
        <div class=""prompt-text"">What would I call this?</div>
        <div class=""button-spacing""></div>
        <img src=""interlocutor/child_male_02_side.png"" class=""interlocutor-image"">
        </div>

        </div>

        <div class=""button-spacing""></div>
        ","0","true","Danrul","Dan","[""Danrul"",""Danrik""]","rul","male","side","","","true","","","",""
"","","","","","html-keyboard-response","48","218091","0.0-36.0","view","short","none","","null","<div style=""font-size: 48px;"">+</div>","null","","","","","","","","true","","","","","",""
"","","","","","html-button-response","49","224937","0.0-37.0-0.0","view","short","none","","6845","
          <style>
            .test-trial-container {
              display: flex;
              align-items: center;
              justify-content: space-between;
              margin: 0 auto;
              max-width: 900px;
            }
            .test-stimulus {
              flex: 1;
              text-align: center;
            }
            .stimulus-box {
              border: 2px solid #ccc;
              padding: 20px;
              border-radius: 10px;
              display: inline-block;
              background-color: #f9f9f9;
            }
            .stimulus-image {
              height: 200px;
              max-width: 200px;
              object-fit: contain;
            }
            .interlocutor-image {
              height: 250px;
            }
            .button-spacing {
              margin-top: 30px;
            }
          </style>

         <div class=""test-trial-container"" style=""display: flex; justify-content: center; gap: 40px; align-items: flex-start;"">

        
        <div class=""stimulus-box"">
        <img src=""teststimuli/chair.svg"" class=""stimulus-image"">
        </div>

      
        <div class=""interlocutor-box"">
        <div class=""prompt-text"">What would I call this?</div>
        <div class=""button-spacing""></div>
        <img src=""interlocutor/elder_male.png"" class=""interlocutor-image"">
        </div>

        </div>

        <div class=""button-spacing""></div>
        ","1","true","Yanrik","Yan","[""Yanrul"",""Yanrik""]","rik","male","front","","","true","","","",""
"","","","","","html-keyboard-response","50","225441","0.0-38.0","view","short","none","","null","<div style=""font-size: 48px;"">+</div>","null","","","","","","","","true","","","","","",""
"","","","","","html-button-response","51","231743","0.0-39.0-0.0","view","short","none","","6301","
          <style>
            .test-trial-container {
              display: flex;
              align-items: center;
              justify-content: space-between;
              margin: 0 auto;
              max-width: 900px;
            }
            .test-stimulus {
              flex: 1;
              text-align: center;
            }
            .stimulus-box {
              border: 2px solid #ccc;
              padding: 20px;
              border-radius: 10px;
              display: inline-block;
              background-color: #f9f9f9;
            }
            .stimulus-image {
              height: 200px;
              max-width: 200px;
              object-fit: contain;
            }
            .interlocutor-image {
              height: 250px;
            }
            .button-spacing {
              margin-top: 30px;
            }
          </style>

         <div class=""test-trial-container"" style=""display: flex; justify-content: center; gap: 40px; align-items: flex-start;"">

        
        <div class=""stimulus-box"">
        <img src=""teststimuli/corn.svg"" class=""stimulus-image"">
        </div>

      
        <div class=""interlocutor-box"">
        <div class=""prompt-text"">What would I call this?</div>
        <div class=""button-spacing""></div>
        <img src=""interlocutor/adult_female.png"" class=""interlocutor-image"">
        </div>

        </div>

        <div class=""button-spacing""></div>
        ","1","true","Lumrik","Lum","[""Lumrik"",""Lumrul""]","rik","female","front","","","false","","","",""
"","","","","","html-keyboard-response","52","232255","0.0-40.0","view","short","none","","null","<div style=""font-size: 48px;"">+</div>","null","","","","","","","","true","","","","","",""
"","","","","","html-button-response","53","240241","0.0-41.0-0.0","view","short","none","","7984","
          <style>
            .test-trial-container {
              display: flex;
              align-items: center;
              justify-content: space-between;
              margin: 0 auto;
              max-width: 900px;
            }
            .test-stimulus {
              flex: 1;
              text-align: center;
            }
            .stimulus-box {
              border: 2px solid #ccc;
              padding: 20px;
              border-radius: 10px;
              display: inline-block;
              background-color: #f9f9f9;
            }
            .stimulus-image {
              height: 200px;
              max-width: 200px;
              object-fit: contain;
            }
            .interlocutor-image {
              height: 250px;
            }
            .button-spacing {
              margin-top: 30px;
            }
          </style>

         <div class=""test-trial-container"" style=""display: flex; justify-content: center; gap: 40px; align-items: flex-start;"">

        
        <div class=""stimulus-box"">
        <img src=""teststimuli/woman.svg"" class=""stimulus-image"">
        </div>

      
        <div class=""interlocutor-box"">
        <div class=""prompt-text"">What would I call this?</div>
        <div class=""button-spacing""></div>
        <img src=""interlocutor/elder_female_side.png"" class=""interlocutor-image"">
        </div>

        </div>

        <div class=""button-spacing""></div>
        ","0","true","Daprul","Dap","[""Daprik"",""Daprul""]","rul","female","side","","","false","","","",""
"","","","","","html-keyboard-response","54","240753","0.0-42.0","view","short","none","","null","<div style=""font-size: 48px;"">+</div>","null","","","","","","","","true","","","","","",""
"","","","","","html-button-response","55","244902","0.0-43.0-0.0","view","short","none","","4147","
          <style>
            .test-trial-container {
              display: flex;
              align-items: center;
              justify-content: space-between;
              margin: 0 auto;
              max-width: 900px;
            }
            .test-stimulus {
              flex: 1;
              text-align: center;
            }
            .stimulus-box {
              border: 2px solid #ccc;
              padding: 20px;
              border-radius: 10px;
              display: inline-block;
              background-color: #f9f9f9;
            }
            .stimulus-image {
              height: 200px;
              max-width: 200px;
              object-fit: contain;
            }
            .interlocutor-image {
              height: 250px;
            }
            .button-spacing {
              margin-top: 30px;
            }
          </style>

         <div class=""test-trial-container"" style=""display: flex; justify-content: center; gap: 40px; align-items: flex-start;"">

        
        <div class=""stimulus-box"">
        <img src=""teststimuli/elder.svg"" class=""stimulus-image"">
        </div>

      
        <div class=""interlocutor-box"">
        <div class=""prompt-text"">What would I call this?</div>
        <div class=""button-spacing""></div>
        <img src=""interlocutor/child_female.png"" class=""interlocutor-image"">
        </div>

        </div>

        <div class=""button-spacing""></div>
        ","0","true","Gynrik","Gyn","[""Gynrul"",""Gynrik""]","rik","female","front","","","false","","","",""
"","","","","","html-keyboard-response","56","245405","0.0-44.0","view","short","none","","null","<div style=""font-size: 48px;"">+</div>","null","","","","","","","","true","","","","","",""
"","","","","","html-button-response","57","252967","0.0-45.0-0.0","view","short","none","","7560","<p><strong>Attention Check</strong></p><p>Click the button labeled ""Right"".</p>","1","","","","","","","","","","true","","","attention-check","1"
"","","","","","html-button-response","58","259510","0.0-46.0-0.0","view","short","none","","6542","
          <style>
            .test-trial-container {
              display: flex;
              align-items: center;
              justify-content: space-between;
              margin: 0 auto;
              max-width: 900px;
            }
            .test-stimulus {
              flex: 1;
              text-align: center;
            }
            .stimulus-box {
              border: 2px solid #ccc;
              padding: 20px;
              border-radius: 10px;
              display: inline-block;
              background-color: #f9f9f9;
            }
            .stimulus-image {
              height: 200px;
              max-width: 200px;
              object-fit: contain;
            }
            .interlocutor-image {
              height: 250px;
            }
            .button-spacing {
              margin-top: 30px;
            }
          </style>

         <div class=""test-trial-container"" style=""display: flex; justify-content: center; gap: 40px; align-items: flex-start;"">

        
        <div class=""stimulus-box"">
        <img src=""stimuli/pitcher_adult_01.png"" class=""stimulus-image"">
        </div>

      
        <div class=""interlocutor-box"">
        <div class=""prompt-text"">What would I call this?</div>
        <div class=""button-spacing""></div>
        <img src=""interlocutor/adult_male.png"" class=""interlocutor-image"">
        </div>

        </div>

        <div class=""button-spacing""></div>
        ","1","true","Huxrik","Hux","[""Huxrik"",""Huxrul""]","rik","male","front","","","false","","","",""
"","","","","","html-keyboard-response","59","260017","0.0-47.0","view","short","none","","null","<div style=""font-size: 48px;"">+</div>","null","","","","","","","","true","","","","","",""
"","","","","","html-button-response","60","266984","0.0-48.0-0.0","view","short","none","","6965","
          <style>
            .test-trial-container {
              display: flex;
              align-items: center;
              justify-content: space-between;
              margin: 0 auto;
              max-width: 900px;
            }
            .test-stimulus {
              flex: 1;
              text-align: center;
            }
            .stimulus-box {
              border: 2px solid #ccc;
              padding: 20px;
              border-radius: 10px;
              display: inline-block;
              background-color: #f9f9f9;
            }
            .stimulus-image {
              height: 200px;
              max-width: 200px;
              object-fit: contain;
            }
            .interlocutor-image {
              height: 250px;
            }
            .button-spacing {
              margin-top: 30px;
            }
          </style>

         <div class=""test-trial-container"" style=""display: flex; justify-content: center; gap: 40px; align-items: flex-start;"">

        
        <div class=""stimulus-box"">
        <img src=""teststimuli/bell.svg"" class=""stimulus-image"">
        </div>

      
        <div class=""interlocutor-box"">
        <div class=""prompt-text"">What would I call this?</div>
        <div class=""button-spacing""></div>
        <img src=""interlocutor/adult_male.png"" class=""interlocutor-image"">
        </div>

        </div>

        <div class=""button-spacing""></div>
        ","1","true","Mozrik","Moz","[""Mozrik"",""Mozrul""]","rik","male","front","","","false","","","",""
"","","","","","html-keyboard-response","61","267496","0.0-49.0","view","short","none","","null","<div style=""font-size: 48px;"">+</div>","null","","","","","","","","true","","","","","",""
"","","","","","html-button-response","62","272602","0.0-50.0-0.0","view","short","none","","5104","
          <style>
            .test-trial-container {
              display: flex;
              align-items: center;
              justify-content: space-between;
              margin: 0 auto;
              max-width: 900px;
            }
            .test-stimulus {
              flex: 1;
              text-align: center;
            }
            .stimulus-box {
              border: 2px solid #ccc;
              padding: 20px;
              border-radius: 10px;
              display: inline-block;
              background-color: #f9f9f9;
            }
            .stimulus-image {
              height: 200px;
              max-width: 200px;
              object-fit: contain;
            }
            .interlocutor-image {
              height: 250px;
            }
            .button-spacing {
              margin-top: 30px;
            }
          </style>

         <div class=""test-trial-container"" style=""display: flex; justify-content: center; gap: 40px; align-items: flex-start;"">

        
        <div class=""stimulus-box"">
        <img src=""teststimuli/plane.svg"" class=""stimulus-image"">
        </div>

      
        <div class=""interlocutor-box"">
        <div class=""prompt-text"">What would I call this?</div>
        <div class=""button-spacing""></div>
        <img src=""interlocutor/adult_female_02.png"" class=""interlocutor-image"">
        </div>

        </div>

        <div class=""button-spacing""></div>
        ","1","true","Meyrik","Mey","[""Meyrik"",""Meyrul""]","rik","female","front","","","false","","","",""
"","","","","","html-keyboard-response","63","273115","0.0-51.0","view","short","none","","null","<div style=""font-size: 48px;"">+</div>","null","","","","","","","","true","","","","","",""
"","","","","","html-button-response","64","276339","0.0-52.0-0.0","view","short","none","","3223","
          <style>
            .test-trial-container {
              display: flex;
              align-items: center;
              justify-content: space-between;
              margin: 0 auto;
              max-width: 900px;
            }
            .test-stimulus {
              flex: 1;
              text-align: center;
            }
            .stimulus-box {
              border: 2px solid #ccc;
              padding: 20px;
              border-radius: 10px;
              display: inline-block;
              background-color: #f9f9f9;
            }
            .stimulus-image {
              height: 200px;
              max-width: 200px;
              object-fit: contain;
            }
            .interlocutor-image {
              height: 250px;
            }
            .button-spacing {
              margin-top: 30px;
            }
          </style>

         <div class=""test-trial-container"" style=""display: flex; justify-content: center; gap: 40px; align-items: flex-start;"">

        
        <div class=""stimulus-box"">
        <img src=""teststimuli/bird.svg"" class=""stimulus-image"">
        </div>

      
        <div class=""interlocutor-box"">
        <div class=""prompt-text"">What would I call this?</div>
        <div class=""button-spacing""></div>
        <img src=""interlocutor/adult_male_02.png"" class=""interlocutor-image"">
        </div>

        </div>

        <div class=""button-spacing""></div>
        ","1","true","Telrik","Tel","[""Telrik"",""Telrul""]","rik","male","front","","","false","","","",""
"","","","","","html-keyboard-response","65","276850","0.0-53.0","view","short","none","","null","<div style=""font-size: 48px;"">+</div>","null","","","","","","","","true","","","","","",""
"","","","","","html-button-response","66","281947","0.0-54.0-0.0","view","short","none","","5095","
          <style>
            .test-trial-container {
              display: flex;
              align-items: center;
              justify-content: space-between;
              margin: 0 auto;
              max-width: 900px;
            }
            .test-stimulus {
              flex: 1;
              text-align: center;
            }
            .stimulus-box {
              border: 2px solid #ccc;
              padding: 20px;
              border-radius: 10px;
              display: inline-block;
              background-color: #f9f9f9;
            }
            .stimulus-image {
              height: 200px;
              max-width: 200px;
              object-fit: contain;
            }
            .interlocutor-image {
              height: 250px;
            }
            .button-spacing {
              margin-top: 30px;
            }
          </style>

         <div class=""test-trial-container"" style=""display: flex; justify-content: center; gap: 40px; align-items: flex-start;"">

        
        <div class=""stimulus-box"">
        <img src=""teststimuli/candy.svg"" class=""stimulus-image"">
        </div>

      
        <div class=""interlocutor-box"">
        <div class=""prompt-text"">What would I call this?</div>
        <div class=""button-spacing""></div>
        <img src=""interlocutor/adult_female_side.png"" class=""interlocutor-image"">
        </div>

        </div>

        <div class=""button-spacing""></div>
        ","0","true","Wibrul","Wib","[""Wibrik"",""Wibrul""]","rul","female","side","","","false","","","",""
"","","","","","html-keyboard-response","67","282450","0.0-55.0","view","short","none","","null","<div style=""font-size: 48px;"">+</div>","null","","","","","","","","true","","","","","",""
"","","","","","html-button-response","68","286347","0.0-56.0-0.0","view","short","none","","3896","
          <style>
            .test-trial-container {
              display: flex;
              align-items: center;
              justify-content: space-between;
              margin: 0 auto;
              max-width: 900px;
            }
            .test-stimulus {
              flex: 1;
              text-align: center;
            }
            .stimulus-box {
              border: 2px solid #ccc;
              padding: 20px;
              border-radius: 10px;
              display: inline-block;
              background-color: #f9f9f9;
            }
            .stimulus-image {
              height: 200px;
              max-width: 200px;
              object-fit: contain;
            }
            .interlocutor-image {
              height: 250px;
            }
            .button-spacing {
              margin-top: 30px;
            }
          </style>

         <div class=""test-trial-container"" style=""display: flex; justify-content: center; gap: 40px; align-items: flex-start;"">

        
        <div class=""stimulus-box"">
        <img src=""teststimuli/fish.svg"" class=""stimulus-image"">
        </div>

      
        <div class=""interlocutor-box"">
        <div class=""prompt-text"">What would I call this?</div>
        <div class=""button-spacing""></div>
        <img src=""interlocutor/child_female_02.png"" class=""interlocutor-image"">
        </div>

        </div>

        <div class=""button-spacing""></div>
        ","1","true","Selrik","Sel","[""Selrik"",""Selrul""]","rik","female","front","","","false","","","",""
"","","","","","html-keyboard-response","69","286850","0.0-57.0","view","short","none","","null","<div style=""font-size: 48px;"">+</div>","null","","","","","","","","true","","","","","",""
"","","","","","html-button-response","70","291212","0.0-58.0-0.0","view","short","none","","4361","
          <style>
            .test-trial-container {
              display: flex;
              align-items: center;
              justify-content: space-between;
              margin: 0 auto;
              max-width: 900px;
            }
            .test-stimulus {
              flex: 1;
              text-align: center;
            }
            .stimulus-box {
              border: 2px solid #ccc;
              padding: 20px;
              border-radius: 10px;
              display: inline-block;
              background-color: #f9f9f9;
            }
            .stimulus-image {
              height: 200px;
              max-width: 200px;
              object-fit: contain;
            }
            .interlocutor-image {
              height: 250px;
            }
            .button-spacing {
              margin-top: 30px;
            }
          </style>

         <div class=""test-trial-container"" style=""display: flex; justify-content: center; gap: 40px; align-items: flex-start;"">

        
        <div class=""stimulus-box"">
        <img src=""teststimuli/horse.svg"" class=""stimulus-image"">
        </div>

      
        <div class=""interlocutor-box"">
        <div class=""prompt-text"">What would I call this?</div>
        <div class=""button-spacing""></div>
        <img src=""interlocutor/adult_male_side.png"" class=""interlocutor-image"">
        </div>

        </div>

        <div class=""button-spacing""></div>
        ","0","true","Bewrul","Bew","[""Bewrik"",""Bewrul""]","rul","male","side","","","false","","","",""
"","","","","","html-keyboard-response","71","291713","0.0-59.0","view","short","none","","null","<div style=""font-size: 48px;"">+</div>","null","","","","","","","","true","","","","","",""
"","","","","","html-button-response","72","294880","0.0-60.0-0.0","view","short","none","","3165","
          <style>
            .test-trial-container {
              display: flex;
              align-items: center;
              justify-content: space-between;
              margin: 0 auto;
              max-width: 900px;
            }
            .test-stimulus {
              flex: 1;
              text-align: center;
            }
            .stimulus-box {
              border: 2px solid #ccc;
              padding: 20px;
              border-radius: 10px;
              display: inline-block;
              background-color: #f9f9f9;
            }
            .stimulus-image {
              height: 200px;
              max-width: 200px;
              object-fit: contain;
            }
            .interlocutor-image {
              height: 250px;
            }
            .button-spacing {
              margin-top: 30px;
            }
          </style>

         <div class=""test-trial-container"" style=""display: flex; justify-content: center; gap: 40px; align-items: flex-start;"">

        
        <div class=""stimulus-box"">
        <img src=""stimuli/bear_adult_male_01.png"" class=""stimulus-image"">
        </div>

      
        <div class=""interlocutor-box"">
        <div class=""prompt-text"">What would I call this?</div>
        <div class=""button-spacing""></div>
        <img src=""interlocutor/adult_male.png"" class=""interlocutor-image"">
        </div>

        </div>

        <div class=""button-spacing""></div>
        ","1","true","Fobrik","Fob","[""Fobrul"",""Fobrik""]","rik","male","front","","","true","","","",""
"","","","","","html-keyboard-response","73","295390","0.0-61.0","view","short","none","","null","<div style=""font-size: 48px;"">+</div>","null","","","","","","","","true","","","","","",""
"","","","","","html-button-response","74","297456","0.0-62.0-0.0","view","short","none","","2065","
          <style>
            .test-trial-container {
              display: flex;
              align-items: center;
              justify-content: space-between;
              margin: 0 auto;
              max-width: 900px;
            }
            .test-stimulus {
              flex: 1;
              text-align: center;
            }
            .stimulus-box {
              border: 2px solid #ccc;
              padding: 20px;
              border-radius: 10px;
              display: inline-block;
              background-color: #f9f9f9;
            }
            .stimulus-image {
              height: 200px;
              max-width: 200px;
              object-fit: contain;
            }
            .interlocutor-image {
              height: 250px;
            }
            .button-spacing {
              margin-top: 30px;
            }
          </style>

         <div class=""test-trial-container"" style=""display: flex; justify-content: center; gap: 40px; align-items: flex-start;"">

        
        <div class=""stimulus-box"">
        <img src=""stimuli/gate_adult_01.png"" class=""stimulus-image"">
        </div>

      
        <div class=""interlocutor-box"">
        <div class=""prompt-text"">What would I call this?</div>
        <div class=""button-spacing""></div>
        <img src=""interlocutor/elder_female_side.png"" class=""interlocutor-image"">
        </div>

        </div>

        <div class=""button-spacing""></div>
        ","0","true","Yorrul","Yor","[""Yorrul"",""Yorrik""]","rul","female","side","","","true","","","",""
"","","","","","html-keyboard-response","75","297963","0.0-63.0","view","short","none","","null","<div style=""font-size: 48px;"">+</div>","null","","","","","","","","true","","","","","",""
"","","","","","html-button-response","76","302772","0.0-64.0-0.0","view","short","none","","4808","
          <style>
            .test-trial-container {
              display: flex;
              align-items: center;
              justify-content: space-between;
              margin: 0 auto;
              max-width: 900px;
            }
            .test-stimulus {
              flex: 1;
              text-align: center;
            }
            .stimulus-box {
              border: 2px solid #ccc;
              padding: 20px;
              border-radius: 10px;
              display: inline-block;
              background-color: #f9f9f9;
            }
            .stimulus-image {
              height: 200px;
              max-width: 200px;
              object-fit: contain;
            }
            .interlocutor-image {
              height: 250px;
            }
            .button-spacing {
              margin-top: 30px;
            }
          </style>

         <div class=""test-trial-container"" style=""display: flex; justify-content: center; gap: 40px; align-items: flex-start;"">

        
        <div class=""stimulus-box"">
        <img src=""teststimuli/cherry.svg"" class=""stimulus-image"">
        </div>

      
        <div class=""interlocutor-box"">
        <div class=""prompt-text"">What would I call this?</div>
        <div class=""button-spacing""></div>
        <img src=""interlocutor/elder_female.png"" class=""interlocutor-image"">
        </div>

        </div>

        <div class=""button-spacing""></div>
        ","1","true","Fumrik","Fum","[""Fumrik"",""Fumrul""]","rik","female","front","","","false","","","",""
"","","","","","html-keyboard-response","77","303276","0.0-65.0","view","short","none","","null","<div style=""font-size: 48px;"">+</div>","null","","","","","","","","true","","","","","",""
"","","","","","html-button-response","78","305783","0.0-66.0-0.0","view","short","none","","2506","<p><strong>Attention Check</strong></p><p>Click the button labeled ""Right"".</p>","1","","","","","","","","","","true","","","attention-check","1"
"","","","","","html-button-response","79","308290","0.0-67.0-0.0","view","short","none","","2506","
          <style>
            .test-trial-container {
              display: flex;
              align-items: center;
              justify-content: space-between;
              margin: 0 auto;
              max-width: 900px;
            }
            .test-stimulus {
              flex: 1;
              text-align: center;
            }
            .stimulus-box {
              border: 2px solid #ccc;
              padding: 20px;
              border-radius: 10px;
              display: inline-block;
              background-color: #f9f9f9;
            }
            .stimulus-image {
              height: 200px;
              max-width: 200px;
              object-fit: contain;
            }
            .interlocutor-image {
              height: 250px;
            }
            .button-spacing {
              margin-top: 30px;
            }
          </style>

         <div class=""test-trial-container"" style=""display: flex; justify-content: center; gap: 40px; align-items: flex-start;"">

        
        <div class=""stimulus-box"">
        <img src=""teststimuli/man.svg"" class=""stimulus-image"">
        </div>

      
        <div class=""interlocutor-box"">
        <div class=""prompt-text"">What would I call this?</div>
        <div class=""button-spacing""></div>
        <img src=""interlocutor/adult_female_02_side.png"" class=""interlocutor-image"">
        </div>

        </div>

        <div class=""button-spacing""></div>
        ","1","true","Tyrrul","Tyr","[""Tyrrik"",""Tyrrul""]","rul","female","side","","","true","","","",""
"","","","","","html-keyboard-response","80","308796","0.0-68.0","view","short","none","","null","<div style=""font-size: 48px;"">+</div>","null","","","","","","","","true","","","","","",""
"","","","","","html-button-response","81","312138","0.0-69.0-0.0","view","short","none","","3340","
          <style>
            .test-trial-container {
              display: flex;
              align-items: center;
              justify-content: space-between;
              margin: 0 auto;
              max-width: 900px;
            }
            .test-stimulus {
              flex: 1;
              text-align: center;
            }
            .stimulus-box {
              border: 2px solid #ccc;
              padding: 20px;
              border-radius: 10px;
              display: inline-block;
              background-color: #f9f9f9;
            }
            .stimulus-image {
              height: 200px;
              max-width: 200px;
              object-fit: contain;
            }
            .interlocutor-image {
              height: 250px;
            }
            .button-spacing {
              margin-top: 30px;
            }
          </style>

         <div class=""test-trial-container"" style=""display: flex; justify-content: center; gap: 40px; align-items: flex-start;"">

        
        <div class=""stimulus-box"">
        <img src=""teststimuli/toothbrush.svg"" class=""stimulus-image"">
        </div>

      
        <div class=""interlocutor-box"">
        <div class=""prompt-text"">What would I call this?</div>
        <div class=""button-spacing""></div>
        <img src=""interlocutor/teen_male_side.png"" class=""interlocutor-image"">
        </div>

        </div>

        <div class=""button-spacing""></div>
        ","0","true","Zanrul","Zan","[""Zanrik"",""Zanrul""]","rul","male","side","","","false","","","",""
"","","","","","html-keyboard-response","82","312644","0.0-70.0","view","short","none","","null","<div style=""font-size: 48px;"">+</div>","null","","","","","","","","true","","","","","",""
"","","","","","html-button-response","83","316443","0.0-71.0-0.0","view","short","none","","3798","
          <style>
            .test-trial-container {
              display: flex;
              align-items: center;
              justify-content: space-between;
              margin: 0 auto;
              max-width: 900px;
            }
            .test-stimulus {
              flex: 1;
              text-align: center;
            }
            .stimulus-box {
              border: 2px solid #ccc;
              padding: 20px;
              border-radius: 10px;
              display: inline-block;
              background-color: #f9f9f9;
            }
            .stimulus-image {
              height: 200px;
              max-width: 200px;
              object-fit: contain;
            }
            .interlocutor-image {
              height: 250px;
            }
            .button-spacing {
              margin-top: 30px;
            }
          </style>

         <div class=""test-trial-container"" style=""display: flex; justify-content: center; gap: 40px; align-items: flex-start;"">

        
        <div class=""stimulus-box"">
        <img src=""teststimuli/couch.svg"" class=""stimulus-image"">
        </div>

      
        <div class=""interlocutor-box"">
        <div class=""prompt-text"">What would I call this?</div>
        <div class=""button-spacing""></div>
        <img src=""interlocutor/child_male_02.png"" class=""interlocutor-image"">
        </div>

        </div>

        <div class=""button-spacing""></div>
        ","0","true","Nixrik","Nix","[""Nixrul"",""Nixrik""]","rik","male","front","","","false","","","",""
"","","","","","html-keyboard-response","84","316953","0.0-72.0","view","short","none","","null","<div style=""font-size: 48px;"">+</div>","null","","","","","","","","true","","","","","",""
"","","","","","html-button-response","85","321215","0.0-73.0-0.0","view","short","none","","4261","
          <style>
            .test-trial-container {
              display: flex;
              align-items: center;
              justify-content: space-between;
              margin: 0 auto;
              max-width: 900px;
            }
            .test-stimulus {
              flex: 1;
              text-align: center;
            }
            .stimulus-box {
              border: 2px solid #ccc;
              padding: 20px;
              border-radius: 10px;
              display: inline-block;
              background-color: #f9f9f9;
            }
            .stimulus-image {
              height: 200px;
              max-width: 200px;
              object-fit: contain;
            }
            .interlocutor-image {
              height: 250px;
            }
            .button-spacing {
              margin-top: 30px;
            }
          </style>

         <div class=""test-trial-container"" style=""display: flex; justify-content: center; gap: 40px; align-items: flex-start;"">

        
        <div class=""stimulus-box"">
        <img src=""teststimuli/bag.svg"" class=""stimulus-image"">
        </div>

      
        <div class=""interlocutor-box"">
        <div class=""prompt-text"">What would I call this?</div>
        <div class=""button-spacing""></div>
        <img src=""interlocutor/adult_female_02_side.png"" class=""interlocutor-image"">
        </div>

        </div>

        <div class=""button-spacing""></div>
        ","1","true","Gulrul","Gul","[""Gulrik"",""Gulrul""]","rul","female","side","","","true","","","",""
"","","","","","html-keyboard-response","86","321723","0.0-74.0","view","short","none","","null","<div style=""font-size: 48px;"">+</div>","null","","","","","","","","true","","","","","",""
"","","","","","survey-text","87","348962","0.0-75.0","view","short","none","","27167","","{""Q0"":""none""}","","","","","","","","","","","","","",""
