"success","timeout","failed_images","failed_audio","failed_video","trial_type","trial_index","time_elapsed","internal_node_id","main_cue","condition","cue_guess","view_history","rt","stimulus","response","test_trial","correct_choice","prompt_label","choices","suffix","gender","view","is_fixation","attention_check","correct","typed_response","expected_label","task","correct_response"
"true","false","[]","[]","[]","preload","0","5","0.0-0.0","view","long","Rul if the person was sideways, rik if the person was facing the front.","","","","","","","","","","","","","","","","","",""
"","","","","","instructions","1","3145","0.0-1.0","view","long","Rul if the person was sideways, rik if the person was facing the front.","[{""page_index"":0,""viewing_time"":3140}]","3140","","","","","","","","","","","","","","","",""
"","","","","","instructions","2","4312","0.0-2.0","view","long","Rul if the person was sideways, rik if the person was facing the front.","[{""page_index"":0,""viewing_time"":1167}]","1167","","","","","","","","","","","","","","","",""
"","","","","","html-button-response","3","6225","0.0-3.0-0.0","view","long","Rul if the person was sideways, rik if the person was facing the front.","","1911","
          <style>
            .quote-box {
              border: 2px solid #ccc;
              padding: 16px;
              margin: 20px auto;
              border-radius: 8px;
              background-color: #ffffff;
              text-align: center;
            }
            .stimuli-image {
              display: block;
              margin: 10px auto;
              max-height: 150px;
            }
            .button-spacing {
              margin-top: 30px;
            }
          </style>

          <div style=""display: flex; align-items: center;"">
            <div style=""flex: 1; padding-right: 20px;"">
              <div class=""quote-box"">
                <p>This is called <strong>Fob</strong>.</p>
                <img src=""stimuli/bear_adult_male_01.png"" class=""stimuli-image"">
              </div>

              <p style=""text-align: center;"">What is this called?</p>

              <div class=""quote-box"">
                <img src=""stimuli/bear_child_01.png"" class=""stimuli-image"">
              </div>

              <div class=""button-spacing""></div>
            </div>

            <div style=""flex-shrink: 0; width: 180px; height: 250px; display: flex; align-items: center; justify-content: center;"">
            <img src=""interlocutor/child_female_side.png"" style=""width: 100%; height: 100%; object-fit: contain;"" />
            </div>
        ","0","false","Fobrul","Fob","[""Fobrik"",""Fobrul""]","rul","female","side","false","false","false","","","",""
"","","","","","html-keyboard-response","4","7226","0.0-3.0-1.0-0.0","view","long","Rul if the person was sideways, rik if the person was facing the front.","","null","<p style='color:red; font-size: 24px;'>Incorrect! Please try again.</p>","null","","","","","","","","","","","","","",""
"","","","","","html-button-response","5","8182","0.0-3.1-0.1","view","long","Rul if the person was sideways, rik if the person was facing the front.","","955","
          <style>
            .quote-box {
              border: 2px solid #ccc;
              padding: 16px;
              margin: 20px auto;
              border-radius: 8px;
              background-color: #ffffff;
              text-align: center;
            }
            .stimuli-image {
              display: block;
              margin: 10px auto;
              max-height: 150px;
            }
            .button-spacing {
              margin-top: 30px;
            }
          </style>

          <div style=""display: flex; align-items: center;"">
            <div style=""flex: 1; padding-right: 20px;"">
              <div class=""quote-box"">
                <p>This is called <strong>Fob</strong>.</p>
                <img src=""stimuli/bear_adult_male_01.png"" class=""stimuli-image"">
              </div>

              <p style=""text-align: center;"">What is this called?</p>

              <div class=""quote-box"">
                <img src=""stimuli/bear_child_01.png"" class=""stimuli-image"">
              </div>

              <div class=""button-spacing""></div>
            </div>

            <div style=""flex-shrink: 0; width: 180px; height: 250px; display: flex; align-items: center; justify-content: center;"">
            <img src=""interlocutor/child_female_side.png"" style=""width: 100%; height: 100%; object-fit: contain;"" />
            </div>
        ","1","false","Fobrul","Fob","[""Fobrik"",""Fobrul""]","rul","female","side","false","false","true","","","",""
"","","","","","html-keyboard-response","6","8689","0.0-4.0","view","long","Rul if the person was sideways, rik if the person was facing the front.","","null","<div style=""font-size: 48px;"">+</div>","null","","","","","","","","true","","","","","",""
"","","","","","html-button-response","7","11142","0.0-5.0-0.0","view","long","Rul if the person was sideways, rik if the person was facing the front.","","2452","
          <style>
            .quote-box {
              border: 2px solid #ccc;
              padding: 16px;
              margin: 20px auto;
              border-radius: 8px;
              background-color: #ffffff;
              text-align: center;
            }
            .stimuli-image {
              display: block;
              margin: 10px auto;
              max-height: 150px;
            }
            .button-spacing {
              margin-top: 30px;
            }
          </style>

          <div style=""display: flex; align-items: center;"">
            <div style=""flex: 1; padding-right: 20px;"">
              <div class=""quote-box"">
                <p>This is called <strong>Rim</strong>.</p>
                <img src=""stimuli/light_small.jpeg"" class=""stimuli-image"">
              </div>

              <p style=""text-align: center;"">What is this called?</p>

              <div class=""quote-box"">
                <img src=""stimuli/light_large.png"" class=""stimuli-image"">
              </div>

              <div class=""button-spacing""></div>
            </div>

            <div style=""flex-shrink: 0; width: 180px; height: 250px; display: flex; align-items: center; justify-content: center;"">
            <img src=""interlocutor/child_male_side.png"" style=""width: 100%; height: 100%; object-fit: contain;"" />
            </div>
        ","1","false","Rimrul","Rim","[""Rimrik"",""Rimrul""]","rul","male","side","false","false","true","","","",""
"","","","","","html-keyboard-response","8","11648","0.0-6.0","view","long","Rul if the person was sideways, rik if the person was facing the front.","","null","<div style=""font-size: 48px;"">+</div>","null","","","","","","","","true","","","","","",""
"","","","","","html-button-response","9","13815","0.0-7.0-0.0","view","long","Rul if the person was sideways, rik if the person was facing the front.","","2166","
          <style>
            .quote-box {
              border: 2px solid #ccc;
              padding: 16px;
              margin: 20px auto;
              border-radius: 8px;
              background-color: #ffffff;
              text-align: center;
            }
            .stimuli-image {
              display: block;
              margin: 10px auto;
              max-height: 150px;
            }
            .button-spacing {
              margin-top: 30px;
            }
          </style>

          <div style=""display: flex; align-items: center;"">
            <div style=""flex: 1; padding-right: 20px;"">
              <div class=""quote-box"">
                <p>This is called <strong>Hux</strong>.</p>
                <img src=""stimuli/pitcher_adult_01.png"" class=""stimuli-image"">
              </div>

              <p style=""text-align: center;"">What is this called?</p>

              <div class=""quote-box"">
                <img src=""stimuli/pitcher_child_01.png"" class=""stimuli-image"">
              </div>

              <div class=""button-spacing""></div>
            </div>

            <div style=""flex-shrink: 0; width: 180px; height: 250px; display: flex; align-items: center; justify-content: center;"">
            <img src=""interlocutor/child_male_side.png"" style=""width: 100%; height: 100%; object-fit: contain;"" />
            </div>
        ","1","false","Huxrul","Hux","[""Huxrik"",""Huxrul""]","rul","male","side","false","false","true","","","",""
"","","","","","html-keyboard-response","10","14327","0.0-8.0","view","long","Rul if the person was sideways, rik if the person was facing the front.","","null","<div style=""font-size: 48px;"">+</div>","null","","","","","","","","true","","","","","",""
"","","","","","survey-text","11","18556","0.0-9.0-0.0","view","long","Rul if the person was sideways, rik if the person was facing the front.","","4227","","{""Q0"":""Huxrul""}","","","","","","","","","true","true","huxrul","huxrul","",""
"","","","","","html-button-response","12","20122","0.0-10.0-0.0","view","long","Rul if the person was sideways, rik if the person was facing the front.","","1565","
          <style>
            .quote-box {
              border: 2px solid #ccc;
              padding: 16px;
              margin: 20px auto;
              border-radius: 8px;
              background-color: #ffffff;
              text-align: center;
            }
            .stimuli-image {
              display: block;
              margin: 10px auto;
              max-height: 150px;
            }
            .button-spacing {
              margin-top: 30px;
            }
          </style>

          <div style=""display: flex; align-items: center;"">
            <div style=""flex: 1; padding-right: 20px;"">
              <div class=""quote-box"">
                <p>This is called <strong>Mox</strong>.</p>
                <img src=""stimuli/small_boat.jpg"" class=""stimuli-image"">
              </div>

              <p style=""text-align: center;"">What is this called?</p>

              <div class=""quote-box"">
                <img src=""stimuli/large_boat.png"" class=""stimuli-image"">
              </div>

              <div class=""button-spacing""></div>
            </div>

            <div style=""flex-shrink: 0; width: 180px; height: 250px; display: flex; align-items: center; justify-content: center;"">
            <img src=""interlocutor/elder_female.png"" style=""width: 100%; height: 100%; object-fit: contain;"" />
            </div>
        ","0","false","Moxrik","Mox","[""Moxrik"",""Moxrul""]","rik","female","front","false","false","true","","","",""
"","","","","","html-keyboard-response","13","20629","0.0-11.0","view","long","Rul if the person was sideways, rik if the person was facing the front.","","null","<div style=""font-size: 48px;"">+</div>","null","","","","","","","","true","","","","","",""
"","","","","","html-button-response","14","22023","0.0-12.0-0.0","view","long","Rul if the person was sideways, rik if the person was facing the front.","","1393","
          <style>
            .quote-box {
              border: 2px solid #ccc;
              padding: 16px;
              margin: 20px auto;
              border-radius: 8px;
              background-color: #ffffff;
              text-align: center;
            }
            .stimuli-image {
              display: block;
              margin: 10px auto;
              max-height: 150px;
            }
            .button-spacing {
              margin-top: 30px;
            }
          </style>

          <div style=""display: flex; align-items: center;"">
            <div style=""flex: 1; padding-right: 20px;"">
              <div class=""quote-box"">
                <p>This is called <strong>Lom</strong>.</p>
                <img src=""stimuli/bunny.jpg"" class=""stimuli-image"">
              </div>

              <p style=""text-align: center;"">What is this called?</p>

              <div class=""quote-box"">
                <img src=""stimuli/rabbit.jpg"" class=""stimuli-image"">
              </div>

              <div class=""button-spacing""></div>
            </div>

            <div style=""flex-shrink: 0; width: 180px; height: 250px; display: flex; align-items: center; justify-content: center;"">
            <img src=""interlocutor/elder_female.png"" style=""width: 100%; height: 100%; object-fit: contain;"" />
            </div>
        ","0","false","Lomrik","Lom","[""Lomrik"",""Lomrul""]","rik","female","front","false","false","true","","","",""
"","","","","","html-keyboard-response","15","22525","0.0-13.0","view","long","Rul if the person was sideways, rik if the person was facing the front.","","null","<div style=""font-size: 48px;"">+</div>","null","","","","","","","","true","","","","","",""
"","","","","","html-button-response","16","24554","0.0-14.0-0.0","view","long","Rul if the person was sideways, rik if the person was facing the front.","","2028","
          <style>
            .quote-box {
              border: 2px solid #ccc;
              padding: 16px;
              margin: 20px auto;
              border-radius: 8px;
              background-color: #ffffff;
              text-align: center;
            }
            .stimuli-image {
              display: block;
              margin: 10px auto;
              max-height: 150px;
            }
            .button-spacing {
              margin-top: 30px;
            }
          </style>

          <div style=""display: flex; align-items: center;"">
            <div style=""flex: 1; padding-right: 20px;"">
              <div class=""quote-box"">
                <p>This is called <strong>Ara</strong>.</p>
                <img src=""stimuli/camera_large.jpg"" class=""stimuli-image"">
              </div>

              <p style=""text-align: center;"">What is this called?</p>

              <div class=""quote-box"">
                <img src=""stimuli/camera_small.jpg"" class=""stimuli-image"">
              </div>

              <div class=""button-spacing""></div>
            </div>

            <div style=""flex-shrink: 0; width: 180px; height: 250px; display: flex; align-items: center; justify-content: center;"">
            <img src=""interlocutor/child_female_side.png"" style=""width: 100%; height: 100%; object-fit: contain;"" />
            </div>
        ","1","false","Ararul","Ara","[""Ararik"",""Ararul""]","rul","female","side","false","false","true","","","",""
"","","","","","html-keyboard-response","17","25065","0.0-15.0","view","long","Rul if the person was sideways, rik if the person was facing the front.","","null","<div style=""font-size: 48px;"">+</div>","null","","","","","","","","true","","","","","",""
"","","","","","survey-text","18","28291","0.0-16.0-0.0","view","long","Rul if the person was sideways, rik if the person was facing the front.","","3225","","{""Q0"":""Ararul""}","","","","","","","","","true","true","ararul","ararul","",""
"","","","","","html-button-response","19","29502","0.0-17.0-0.0","view","long","Rul if the person was sideways, rik if the person was facing the front.","","1211","
          <style>
            .quote-box {
              border: 2px solid #ccc;
              padding: 16px;
              margin: 20px auto;
              border-radius: 8px;
              background-color: #ffffff;
              text-align: center;
            }
            .stimuli-image {
              display: block;
              margin: 10px auto;
              max-height: 150px;
            }
            .button-spacing {
              margin-top: 30px;
            }
          </style>

          <div style=""display: flex; align-items: center;"">
            <div style=""flex: 1; padding-right: 20px;"">
              <div class=""quote-box"">
                <p>This is called <strong>Ibo</strong>.</p>
                <img src=""stimuli/daisy_adult.png"" class=""stimuli-image"">
              </div>

              <p style=""text-align: center;"">What is this called?</p>

              <div class=""quote-box"">
                <img src=""stimuli/daisy_small.png"" class=""stimuli-image"">
              </div>

              <div class=""button-spacing""></div>
            </div>

            <div style=""flex-shrink: 0; width: 180px; height: 250px; display: flex; align-items: center; justify-content: center;"">
            <img src=""interlocutor/child_female_side.png"" style=""width: 100%; height: 100%; object-fit: contain;"" />
            </div>
        ","1","false","Iborul","Ibo","[""Iborik"",""Iborul""]","rul","female","side","false","false","true","","","",""
"","","","","","html-keyboard-response","20","30003","0.0-18.0","view","long","Rul if the person was sideways, rik if the person was facing the front.","","null","<div style=""font-size: 48px;"">+</div>","null","","","","","","","","true","","","","","",""
"","","","","","html-button-response","21","31227","0.0-19.0-0.0","view","long","Rul if the person was sideways, rik if the person was facing the front.","","1224","
          <style>
            .quote-box {
              border: 2px solid #ccc;
              padding: 16px;
              margin: 20px auto;
              border-radius: 8px;
              background-color: #ffffff;
              text-align: center;
            }
            .stimuli-image {
              display: block;
              margin: 10px auto;
              max-height: 150px;
            }
            .button-spacing {
              margin-top: 30px;
            }
          </style>

          <div style=""display: flex; align-items: center;"">
            <div style=""flex: 1; padding-right: 20px;"">
              <div class=""quote-box"">
                <p>This is called <strong>Pib</strong>.</p>
                <img src=""stimuli/candleholder_adult_01.png"" class=""stimuli-image"">
              </div>

              <p style=""text-align: center;"">What is this called?</p>

              <div class=""quote-box"">
                <img src=""stimuli/candleholder_child_01.png"" class=""stimuli-image"">
              </div>

              <div class=""button-spacing""></div>
            </div>

            <div style=""flex-shrink: 0; width: 180px; height: 250px; display: flex; align-items: center; justify-content: center;"">
            <img src=""interlocutor/child_male.png"" style=""width: 100%; height: 100%; object-fit: contain;"" />
            </div>
        ","0","false","Pibrik","Pib","[""Pibrik"",""Pibrul""]","rik","male","front","false","false","true","","","",""
"","","","","","html-keyboard-response","22","31729","0.0-20.0","view","long","Rul if the person was sideways, rik if the person was facing the front.","","null","<div style=""font-size: 48px;"">+</div>","null","","","","","","","","true","","","","","",""
"","","","","","html-button-response","23","33201","0.0-21.0-0.0","view","long","Rul if the person was sideways, rik if the person was facing the front.","","1471","
          <style>
            .quote-box {
              border: 2px solid #ccc;
              padding: 16px;
              margin: 20px auto;
              border-radius: 8px;
              background-color: #ffffff;
              text-align: center;
            }
            .stimuli-image {
              display: block;
              margin: 10px auto;
              max-height: 150px;
            }
            .button-spacing {
              margin-top: 30px;
            }
          </style>

          <div style=""display: flex; align-items: center;"">
            <div style=""flex: 1; padding-right: 20px;"">
              <div class=""quote-box"">
                <p>This is called <strong>Fek</strong>.</p>
                <img src=""stimuli/fox_adult_male_01.png"" class=""stimuli-image"">
              </div>

              <p style=""text-align: center;"">What is this called?</p>

              <div class=""quote-box"">
                <img src=""stimuli/fox_child_01.png"" class=""stimuli-image"">
              </div>

              <div class=""button-spacing""></div>
            </div>

            <div style=""flex-shrink: 0; width: 180px; height: 250px; display: flex; align-items: center; justify-content: center;"">
            <img src=""interlocutor/child_male_side.png"" style=""width: 100%; height: 100%; object-fit: contain;"" />
            </div>
        ","1","false","Fekrul","Fek","[""Fekrik"",""Fekrul""]","rul","male","side","false","false","true","","","",""
"","","","","","html-keyboard-response","24","33707","0.0-22.0","view","long","Rul if the person was sideways, rik if the person was facing the front.","","null","<div style=""font-size: 48px;"">+</div>","null","","","","","","","","true","","","","","",""
"","","","","","survey-text","25","37200","0.0-23.0-0.0","view","long","Rul if the person was sideways, rik if the person was facing the front.","","3492","","{""Q0"":""Fekrul""}","","","","","","","","","true","true","fekrul","fekrul","",""
"","","","","","html-button-response","26","40203","0.0-24.0-0.0","view","long","Rul if the person was sideways, rik if the person was facing the front.","","3003","
          <style>
            .quote-box {
              border: 2px solid #ccc;
              padding: 16px;
              margin: 20px auto;
              border-radius: 8px;
              background-color: #ffffff;
              text-align: center;
            }
            .stimuli-image {
              display: block;
              margin: 10px auto;
              max-height: 150px;
            }
            .button-spacing {
              margin-top: 30px;
            }
          </style>

          <div style=""display: flex; align-items: center;"">
            <div style=""flex: 1; padding-right: 20px;"">
              <div class=""quote-box"">
                <p>This is called <strong>Nuv</strong>.</p>
                <img src=""stimuli/asteroid_small.png"" class=""stimuli-image"">
              </div>

              <p style=""text-align: center;"">What is this called?</p>

              <div class=""quote-box"">
                <img src=""stimuli/asteroid_large.jpg"" class=""stimuli-image"">
              </div>

              <div class=""button-spacing""></div>
            </div>

            <div style=""flex-shrink: 0; width: 180px; height: 250px; display: flex; align-items: center; justify-content: center;"">
            <img src=""interlocutor/elder_female.png"" style=""width: 100%; height: 100%; object-fit: contain;"" />
            </div>
        ","0","false","Nuvrik","Nuv","[""Nuvrik"",""Nuvrul""]","rik","female","front","false","false","true","","","",""
"","","","","","html-keyboard-response","27","40707","0.0-25.0","view","long","Rul if the person was sideways, rik if the person was facing the front.","","null","<div style=""font-size: 48px;"">+</div>","null","","","","","","","","true","","","","","",""
"","","","","","html-button-response","28","42501","0.0-26.0-0.0","view","long","Rul if the person was sideways, rik if the person was facing the front.","","1794","
          <style>
            .quote-box {
              border: 2px solid #ccc;
              padding: 16px;
              margin: 20px auto;
              border-radius: 8px;
              background-color: #ffffff;
              text-align: center;
            }
            .stimuli-image {
              display: block;
              margin: 10px auto;
              max-height: 150px;
            }
            .button-spacing {
              margin-top: 30px;
            }
          </style>

          <div style=""display: flex; align-items: center;"">
            <div style=""flex: 1; padding-right: 20px;"">
              <div class=""quote-box"">
                <p>This is called <strong>Cov</strong>.</p>
                <img src=""stimuli/penguin.png"" class=""stimuli-image"">
              </div>

              <p style=""text-align: center;"">What is this called?</p>

              <div class=""quote-box"">
                <img src=""stimuli/penguin_large.png"" class=""stimuli-image"">
              </div>

              <div class=""button-spacing""></div>
            </div>

            <div style=""flex-shrink: 0; width: 180px; height: 250px; display: flex; align-items: center; justify-content: center;"">
            <img src=""interlocutor/child_female_side.png"" style=""width: 100%; height: 100%; object-fit: contain;"" />
            </div>
        ","1","false","Covrul","Cov","[""Covrik"",""Covrul""]","rul","female","side","false","false","true","","","",""
"","","","","","html-keyboard-response","29","43014","0.0-27.0","view","long","Rul if the person was sideways, rik if the person was facing the front.","","null","<div style=""font-size: 48px;"">+</div>","null","","","","","","","","true","","","","","",""
"","","","","","html-button-response","30","46274","0.0-28.0-0.0","view","long","Rul if the person was sideways, rik if the person was facing the front.","","3260","
          <style>
            .quote-box {
              border: 2px solid #ccc;
              padding: 16px;
              margin: 20px auto;
              border-radius: 8px;
              background-color: #ffffff;
              text-align: center;
            }
            .stimuli-image {
              display: block;
              margin: 10px auto;
              max-height: 150px;
            }
            .button-spacing {
              margin-top: 30px;
            }
          </style>

          <div style=""display: flex; align-items: center;"">
            <div style=""flex: 1; padding-right: 20px;"">
              <div class=""quote-box"">
                <p>This is called <strong>Dan</strong>.</p>
                <img src=""stimuli/bokchoy_adult_01.png"" class=""stimuli-image"">
              </div>

              <p style=""text-align: center;"">What is this called?</p>

              <div class=""quote-box"">
                <img src=""stimuli/bokchoy_child_01.png"" class=""stimuli-image"">
              </div>

              <div class=""button-spacing""></div>
            </div>

            <div style=""flex-shrink: 0; width: 180px; height: 250px; display: flex; align-items: center; justify-content: center;"">
            <img src=""interlocutor/child_male.png"" style=""width: 100%; height: 100%; object-fit: contain;"" />
            </div>
        ","0","false","Danrik","Dan","[""Danrik"",""Danrul""]","rik","male","front","false","false","true","","","",""
"","","","","","html-keyboard-response","31","46781","0.0-29.0","view","long","Rul if the person was sideways, rik if the person was facing the front.","","null","<div style=""font-size: 48px;"">+</div>","null","","","","","","","","true","","","","","",""
"","","","","","survey-text","32","51308","0.0-30.0-0.0","view","long","Rul if the person was sideways, rik if the person was facing the front.","","4526","","{""Q0"":""Danrik""}","","","","","","","","","true","true","danrik","danrik","",""
"","","","","","html-button-response","33","52998","0.0-31.0-0.0","view","long","Rul if the person was sideways, rik if the person was facing the front.","","1690","
          <style>
            .quote-box {
              border: 2px solid #ccc;
              padding: 16px;
              margin: 20px auto;
              border-radius: 8px;
              background-color: #ffffff;
              text-align: center;
            }
            .stimuli-image {
              display: block;
              margin: 10px auto;
              max-height: 150px;
            }
            .button-spacing {
              margin-top: 30px;
            }
          </style>

          <div style=""display: flex; align-items: center;"">
            <div style=""flex: 1; padding-right: 20px;"">
              <div class=""quote-box"">
                <p>This is called <strong>Baj</strong>.</p>
                <img src=""stimuli/yogurt_small.jpg"" class=""stimuli-image"">
              </div>

              <p style=""text-align: center;"">What is this called?</p>

              <div class=""quote-box"">
                <img src=""stimuli/yogurt_large.png"" class=""stimuli-image"">
              </div>

              <div class=""button-spacing""></div>
            </div>

            <div style=""flex-shrink: 0; width: 180px; height: 250px; display: flex; align-items: center; justify-content: center;"">
            <img src=""interlocutor/child_female_side.png"" style=""width: 100%; height: 100%; object-fit: contain;"" />
            </div>
        ","1","false","Bajrul","Baj","[""Bajrik"",""Bajrul""]","rul","female","side","false","false","true","","","",""
"","","","","","html-keyboard-response","34","53500","0.0-32.0","view","long","Rul if the person was sideways, rik if the person was facing the front.","","null","<div style=""font-size: 48px;"">+</div>","null","","","","","","","","true","","","","","",""
"","","","","","html-button-response","35","55590","0.0-33.0-0.0","view","long","Rul if the person was sideways, rik if the person was facing the front.","","2090","
          <style>
            .quote-box {
              border: 2px solid #ccc;
              padding: 16px;
              margin: 20px auto;
              border-radius: 8px;
              background-color: #ffffff;
              text-align: center;
            }
            .stimuli-image {
              display: block;
              margin: 10px auto;
              max-height: 150px;
            }
            .button-spacing {
              margin-top: 30px;
            }
          </style>

          <div style=""display: flex; align-items: center;"">
            <div style=""flex: 1; padding-right: 20px;"">
              <div class=""quote-box"">
                <p>This is called <strong>Ola</strong>.</p>
                <img src=""stimuli/basket_small.png"" class=""stimuli-image"">
              </div>

              <p style=""text-align: center;"">What is this called?</p>

              <div class=""quote-box"">
                <img src=""stimuli/basket_large.png"" class=""stimuli-image"">
              </div>

              <div class=""button-spacing""></div>
            </div>

            <div style=""flex-shrink: 0; width: 180px; height: 250px; display: flex; align-items: center; justify-content: center;"">
            <img src=""interlocutor/elder_female.png"" style=""width: 100%; height: 100%; object-fit: contain;"" />
            </div>
        ","0","false","Olarik","Ola","[""Olarik"",""Olarul""]","rik","female","front","false","false","true","","","",""
"","","","","","html-keyboard-response","36","56103","0.0-34.0","view","long","Rul if the person was sideways, rik if the person was facing the front.","","null","<div style=""font-size: 48px;"">+</div>","null","","","","","","","","true","","","","","",""
"","","","","","html-button-response","37","57291","0.0-35.0-0.0","view","long","Rul if the person was sideways, rik if the person was facing the front.","","1187","
          <style>
            .quote-box {
              border: 2px solid #ccc;
              padding: 16px;
              margin: 20px auto;
              border-radius: 8px;
              background-color: #ffffff;
              text-align: center;
            }
            .stimuli-image {
              display: block;
              margin: 10px auto;
              max-height: 150px;
            }
            .button-spacing {
              margin-top: 30px;
            }
          </style>

          <div style=""display: flex; align-items: center;"">
            <div style=""flex: 1; padding-right: 20px;"">
              <div class=""quote-box"">
                <p>This is called <strong>Fon</strong>.</p>
                <img src=""stimuli/drawer.png"" class=""stimuli-image"">
              </div>

              <p style=""text-align: center;"">What is this called?</p>

              <div class=""quote-box"">
                <img src=""stimuli/warddrobe.jpg"" class=""stimuli-image"">
              </div>

              <div class=""button-spacing""></div>
            </div>

            <div style=""flex-shrink: 0; width: 180px; height: 250px; display: flex; align-items: center; justify-content: center;"">
            <img src=""interlocutor/elder_female.png"" style=""width: 100%; height: 100%; object-fit: contain;"" />
            </div>
        ","0","false","Fonrik","Fon","[""Fonrik"",""Fonrul""]","rik","female","front","false","false","true","","","",""
"","","","","","html-keyboard-response","38","57804","0.0-36.0","view","long","Rul if the person was sideways, rik if the person was facing the front.","","null","<div style=""font-size: 48px;"">+</div>","null","","","","","","","","true","","","","","",""
"","","","","","survey-text","39","61844","0.0-37.0-0.0","view","long","Rul if the person was sideways, rik if the person was facing the front.","","4039","","{""Q0"":""Fonrik""}","","","","","","","","","true","true","fonrik","fonrik","",""
"","","","","","html-button-response","40","63332","0.0-38.0-0.0","view","long","Rul if the person was sideways, rik if the person was facing the front.","","1488","
          <style>
            .quote-box {
              border: 2px solid #ccc;
              padding: 16px;
              margin: 20px auto;
              border-radius: 8px;
              background-color: #ffffff;
              text-align: center;
            }
            .stimuli-image {
              display: block;
              margin: 10px auto;
              max-height: 150px;
            }
            .button-spacing {
              margin-top: 30px;
            }
          </style>

          <div style=""display: flex; align-items: center;"">
            <div style=""flex: 1; padding-right: 20px;"">
              <div class=""quote-box"">
                <p>This is called <strong>Ked</strong>.</p>
                <img src=""stimuli/mushroom_adult_01.png"" class=""stimuli-image"">
              </div>

              <p style=""text-align: center;"">What is this called?</p>

              <div class=""quote-box"">
                <img src=""stimuli/mushroom_child_01.png"" class=""stimuli-image"">
              </div>

              <div class=""button-spacing""></div>
            </div>

            <div style=""flex-shrink: 0; width: 180px; height: 250px; display: flex; align-items: center; justify-content: center;"">
            <img src=""interlocutor/child_male.png"" style=""width: 100%; height: 100%; object-fit: contain;"" />
            </div>
        ","0","false","Kedrik","Ked","[""Kedrik"",""Kedrul""]","rik","male","front","false","false","true","","","",""
"","","","","","html-keyboard-response","41","63840","0.0-39.0","view","long","Rul if the person was sideways, rik if the person was facing the front.","","null","<div style=""font-size: 48px;"">+</div>","null","","","","","","","","true","","","","","",""
"","","","","","html-button-response","42","65225","0.0-40.0-0.0","view","long","Rul if the person was sideways, rik if the person was facing the front.","","1384","
          <style>
            .quote-box {
              border: 2px solid #ccc;
              padding: 16px;
              margin: 20px auto;
              border-radius: 8px;
              background-color: #ffffff;
              text-align: center;
            }
            .stimuli-image {
              display: block;
              margin: 10px auto;
              max-height: 150px;
            }
            .button-spacing {
              margin-top: 30px;
            }
          </style>

          <div style=""display: flex; align-items: center;"">
            <div style=""flex: 1; padding-right: 20px;"">
              <div class=""quote-box"">
                <p>This is called <strong>Yor</strong>.</p>
                <img src=""stimuli/gate_adult_01.png"" class=""stimuli-image"">
              </div>

              <p style=""text-align: center;"">What is this called?</p>

              <div class=""quote-box"">
                <img src=""stimuli/gate_child_01.png"" class=""stimuli-image"">
              </div>

              <div class=""button-spacing""></div>
            </div>

            <div style=""flex-shrink: 0; width: 180px; height: 250px; display: flex; align-items: center; justify-content: center;"">
            <img src=""interlocutor/child_female_side.png"" style=""width: 100%; height: 100%; object-fit: contain;"" />
            </div>
        ","1","false","Yorrul","Yor","[""Yorrik"",""Yorrul""]","rul","female","side","false","false","true","","","",""
"","","","","","html-keyboard-response","43","65728","0.0-41.0","view","long","Rul if the person was sideways, rik if the person was facing the front.","","null","<div style=""font-size: 48px;"">+</div>","null","","","","","","","","true","","","","","",""
"","","","","","html-button-response","44","68357","0.0-42.0-0.0","view","long","Rul if the person was sideways, rik if the person was facing the front.","","2628","
          <style>
            .quote-box {
              border: 2px solid #ccc;
              padding: 16px;
              margin: 20px auto;
              border-radius: 8px;
              background-color: #ffffff;
              text-align: center;
            }
            .stimuli-image {
              display: block;
              margin: 10px auto;
              max-height: 150px;
            }
            .button-spacing {
              margin-top: 30px;
            }
          </style>

          <div style=""display: flex; align-items: center;"">
            <div style=""flex: 1; padding-right: 20px;"">
              <div class=""quote-box"">
                <p>This is called <strong>Han</strong>.</p>
                <img src=""stimuli/chair_adult_02.png"" class=""stimuli-image"">
              </div>

              <p style=""text-align: center;"">What is this called?</p>

              <div class=""quote-box"">
                <img src=""stimuli/chair_small.png"" class=""stimuli-image"">
              </div>

              <div class=""button-spacing""></div>
            </div>

            <div style=""flex-shrink: 0; width: 180px; height: 250px; display: flex; align-items: center; justify-content: center;"">
            <img src=""interlocutor/child_male_side.png"" style=""width: 100%; height: 100%; object-fit: contain;"" />
            </div>
        ","1","false","Hanrul","Han","[""Hanrik"",""Hanrul""]","rul","male","side","false","false","true","","","",""
"","","","","","html-keyboard-response","45","68860","0.0-43.0","view","long","Rul if the person was sideways, rik if the person was facing the front.","","null","<div style=""font-size: 48px;"">+</div>","null","","","","","","","","true","","","","","",""
"","","","","","survey-text","46","75809","0.0-44.0-0.0","view","long","Rul if the person was sideways, rik if the person was facing the front.","","6948","","{""Q0"":""Hanrul""}","","","","","","","","","true","true","hanrul","hanrul","",""
"","","","","","instructions","47","76816","0.0-45.0","view","long","Rul if the person was sideways, rik if the person was facing the front.","[{""page_index"":0,""viewing_time"":1007}]","1008","","","","","","","","","","","","","","","",""
"","","","","","html-button-response","48","77784","0.0-46.0-0.0","view","long","Rul if the person was sideways, rik if the person was facing the front.","","968","
          <style>
            .test-trial-container {
              display: flex;
              align-items: center;
              justify-content: space-between;
              margin: 0 auto;
              max-width: 900px;
            }
            .test-stimulus {
              flex: 1;
              text-align: center;
            }
            .stimulus-box {
              border: 2px solid #ccc;
              padding: 20px;
              border-radius: 10px;
              display: inline-block;
              background-color: #f9f9f9;
            }
            .stimulus-image {
              height: 200px;
              max-width: 200px;
              object-fit: contain;
            }
            .interlocutor-image {
              height: 250px;
            }
            .button-spacing {
              margin-top: 30px;
            }
          </style>

         <div class=""test-trial-container"" style=""display: flex; justify-content: center; gap: 40px; align-items: flex-start;"">

        
        <div class=""stimulus-box"">
        <img src=""teststimuli/toothbrush.svg"" class=""stimulus-image"">
        </div>

      
        <div class=""interlocutor-box"">
        <div class=""prompt-text"">What would I call this?</div>
        <div class=""button-spacing""></div>
        <img src=""interlocutor/child_male_02.png"" class=""interlocutor-image"">
        </div>

        </div>

        <div class=""button-spacing""></div>
        ","1","true","Zanrik","Zan","[""Zanrul"",""Zanrik""]","rik","male","front","","","true","","","",""
"","","","","","html-keyboard-response","49","78288","0.0-47.0","view","long","Rul if the person was sideways, rik if the person was facing the front.","","null","<div style=""font-size: 48px;"">+</div>","null","","","","","","","","true","","","","","",""
"","","","","","html-button-response","50","79632","0.0-48.0-0.0","view","long","Rul if the person was sideways, rik if the person was facing the front.","","1344","
          <style>
            .test-trial-container {
              display: flex;
              align-items: center;
              justify-content: space-between;
              margin: 0 auto;
              max-width: 900px;
            }
            .test-stimulus {
              flex: 1;
              text-align: center;
            }
            .stimulus-box {
              border: 2px solid #ccc;
              padding: 20px;
              border-radius: 10px;
              display: inline-block;
              background-color: #f9f9f9;
            }
            .stimulus-image {
              height: 200px;
              max-width: 200px;
              object-fit: contain;
            }
            .interlocutor-image {
              height: 250px;
            }
            .button-spacing {
              margin-top: 30px;
            }
          </style>

         <div class=""test-trial-container"" style=""display: flex; justify-content: center; gap: 40px; align-items: flex-start;"">

        
        <div class=""stimulus-box"">
        <img src=""teststimuli/globe.svg"" class=""stimulus-image"">
        </div>

      
        <div class=""interlocutor-box"">
        <div class=""prompt-text"">What would I call this?</div>
        <div class=""button-spacing""></div>
        <img src=""interlocutor/adult_male_side.png"" class=""interlocutor-image"">
        </div>

        </div>

        <div class=""button-spacing""></div>
        ","1","true","Vekrul","Vek","[""Vekrik"",""Vekrul""]","rul","male","side","","","true","","","",""
"","","","","","html-keyboard-response","51","80136","0.0-49.0","view","long","Rul if the person was sideways, rik if the person was facing the front.","","null","<div style=""font-size: 48px;"">+</div>","null","","","","","","","","true","","","","","",""
"","","","","","html-button-response","52","81628","0.0-50.0-0.0","view","long","Rul if the person was sideways, rik if the person was facing the front.","","1492","
          <style>
            .test-trial-container {
              display: flex;
              align-items: center;
              justify-content: space-between;
              margin: 0 auto;
              max-width: 900px;
            }
            .test-stimulus {
              flex: 1;
              text-align: center;
            }
            .stimulus-box {
              border: 2px solid #ccc;
              padding: 20px;
              border-radius: 10px;
              display: inline-block;
              background-color: #f9f9f9;
            }
            .stimulus-image {
              height: 200px;
              max-width: 200px;
              object-fit: contain;
            }
            .interlocutor-image {
              height: 250px;
            }
            .button-spacing {
              margin-top: 30px;
            }
          </style>

         <div class=""test-trial-container"" style=""display: flex; justify-content: center; gap: 40px; align-items: flex-start;"">

        
        <div class=""stimulus-box"">
        <img src=""teststimuli/plane.svg"" class=""stimulus-image"">
        </div>

      
        <div class=""interlocutor-box"">
        <div class=""prompt-text"">What would I call this?</div>
        <div class=""button-spacing""></div>
        <img src=""interlocutor/adult_male_02.png"" class=""interlocutor-image"">
        </div>

        </div>

        <div class=""button-spacing""></div>
        ","1","true","Meyrik","Mey","[""Meyrul"",""Meyrik""]","rik","male","front","","","true","","","",""
"","","","","","html-keyboard-response","53","82143","0.0-51.0","view","long","Rul if the person was sideways, rik if the person was facing the front.","","null","<div style=""font-size: 48px;"">+</div>","null","","","","","","","","true","","","","","",""
"","","","","","html-button-response","54","83850","0.0-52.0-0.0","view","long","Rul if the person was sideways, rik if the person was facing the front.","","1706","
          <style>
            .test-trial-container {
              display: flex;
              align-items: center;
              justify-content: space-between;
              margin: 0 auto;
              max-width: 900px;
            }
            .test-stimulus {
              flex: 1;
              text-align: center;
            }
            .stimulus-box {
              border: 2px solid #ccc;
              padding: 20px;
              border-radius: 10px;
              display: inline-block;
              background-color: #f9f9f9;
            }
            .stimulus-image {
              height: 200px;
              max-width: 200px;
              object-fit: contain;
            }
            .interlocutor-image {
              height: 250px;
            }
            .button-spacing {
              margin-top: 30px;
            }
          </style>

         <div class=""test-trial-container"" style=""display: flex; justify-content: center; gap: 40px; align-items: flex-start;"">

        
        <div class=""stimulus-box"">
        <img src=""teststimuli/couch.svg"" class=""stimulus-image"">
        </div>

      
        <div class=""interlocutor-box"">
        <div class=""prompt-text"">What would I call this?</div>
        <div class=""button-spacing""></div>
        <img src=""interlocutor/child_male_02_side.png"" class=""interlocutor-image"">
        </div>

        </div>

        <div class=""button-spacing""></div>
        ","1","true","Nixrul","Nix","[""Nixrik"",""Nixrul""]","rul","male","side","","","true","","","",""
"","","","","","html-keyboard-response","55","84352","0.0-53.0","view","long","Rul if the person was sideways, rik if the person was facing the front.","","null","<div style=""font-size: 48px;"">+</div>","null","","","","","","","","true","","","","","",""
"","","","","","html-button-response","56","85891","0.0-54.0-0.0","view","long","Rul if the person was sideways, rik if the person was facing the front.","","1538","
          <style>
            .test-trial-container {
              display: flex;
              align-items: center;
              justify-content: space-between;
              margin: 0 auto;
              max-width: 900px;
            }
            .test-stimulus {
              flex: 1;
              text-align: center;
            }
            .stimulus-box {
              border: 2px solid #ccc;
              padding: 20px;
              border-radius: 10px;
              display: inline-block;
              background-color: #f9f9f9;
            }
            .stimulus-image {
              height: 200px;
              max-width: 200px;
              object-fit: contain;
            }
            .interlocutor-image {
              height: 250px;
            }
            .button-spacing {
              margin-top: 30px;
            }
          </style>

         <div class=""test-trial-container"" style=""display: flex; justify-content: center; gap: 40px; align-items: flex-start;"">

        
        <div class=""stimulus-box"">
        <img src=""teststimuli/chair.svg"" class=""stimulus-image"">
        </div>

      
        <div class=""interlocutor-box"">
        <div class=""prompt-text"">What would I call this?</div>
        <div class=""button-spacing""></div>
        <img src=""interlocutor/adult_female.png"" class=""interlocutor-image"">
        </div>

        </div>

        <div class=""button-spacing""></div>
        ","1","true","Yanrik","Yan","[""Yanrul"",""Yanrik""]","rik","female","front","","","true","","","",""
"","","","","","html-keyboard-response","57","86391","0.0-55.0","view","long","Rul if the person was sideways, rik if the person was facing the front.","","null","<div style=""font-size: 48px;"">+</div>","null","","","","","","","","true","","","","","",""
"","","","","","html-button-response","58","88235","0.0-56.0-0.0","view","long","Rul if the person was sideways, rik if the person was facing the front.","","1844","
          <style>
            .test-trial-container {
              display: flex;
              align-items: center;
              justify-content: space-between;
              margin: 0 auto;
              max-width: 900px;
            }
            .test-stimulus {
              flex: 1;
              text-align: center;
            }
            .stimulus-box {
              border: 2px solid #ccc;
              padding: 20px;
              border-radius: 10px;
              display: inline-block;
              background-color: #f9f9f9;
            }
            .stimulus-image {
              height: 200px;
              max-width: 200px;
              object-fit: contain;
            }
            .interlocutor-image {
              height: 250px;
            }
            .button-spacing {
              margin-top: 30px;
            }
          </style>

         <div class=""test-trial-container"" style=""display: flex; justify-content: center; gap: 40px; align-items: flex-start;"">

        
        <div class=""stimulus-box"">
        <img src=""teststimuli/sandwich.svg"" class=""stimulus-image"">
        </div>

      
        <div class=""interlocutor-box"">
        <div class=""prompt-text"">What would I call this?</div>
        <div class=""button-spacing""></div>
        <img src=""interlocutor/child_female_02.png"" class=""interlocutor-image"">
        </div>

        </div>

        <div class=""button-spacing""></div>
        ","0","true","Nixrik","Nix","[""Nixrik"",""Nixrul""]","rik","female","front","","","true","","","",""
"","","","","","html-keyboard-response","59","88737","0.0-57.0","view","long","Rul if the person was sideways, rik if the person was facing the front.","","null","<div style=""font-size: 48px;"">+</div>","null","","","","","","","","true","","","","","",""
"","","","","","html-button-response","60","90750","0.0-58.0-0.0","view","long","Rul if the person was sideways, rik if the person was facing the front.","","2013","
          <style>
            .test-trial-container {
              display: flex;
              align-items: center;
              justify-content: space-between;
              margin: 0 auto;
              max-width: 900px;
            }
            .test-stimulus {
              flex: 1;
              text-align: center;
            }
            .stimulus-box {
              border: 2px solid #ccc;
              padding: 20px;
              border-radius: 10px;
              display: inline-block;
              background-color: #f9f9f9;
            }
            .stimulus-image {
              height: 200px;
              max-width: 200px;
              object-fit: contain;
            }
            .interlocutor-image {
              height: 250px;
            }
            .button-spacing {
              margin-top: 30px;
            }
          </style>

         <div class=""test-trial-container"" style=""display: flex; justify-content: center; gap: 40px; align-items: flex-start;"">

        
        <div class=""stimulus-box"">
        <img src=""teststimuli/man.svg"" class=""stimulus-image"">
        </div>

      
        <div class=""interlocutor-box"">
        <div class=""prompt-text"">What would I call this?</div>
        <div class=""button-spacing""></div>
        <img src=""interlocutor/child_female_side.png"" class=""interlocutor-image"">
        </div>

        </div>

        <div class=""button-spacing""></div>
        ","0","true","Tyrrul","Tyr","[""Tyrrul"",""Tyrrik""]","rul","female","side","","","true","","","",""
"","","","","","html-keyboard-response","61","91250","0.0-59.0","view","long","Rul if the person was sideways, rik if the person was facing the front.","","null","<div style=""font-size: 48px;"">+</div>","null","","","","","","","","true","","","","","",""
"","","","","","html-button-response","62","93125","0.0-60.0-0.0","view","long","Rul if the person was sideways, rik if the person was facing the front.","","1874","
          <style>
            .test-trial-container {
              display: flex;
              align-items: center;
              justify-content: space-between;
              margin: 0 auto;
              max-width: 900px;
            }
            .test-stimulus {
              flex: 1;
              text-align: center;
            }
            .stimulus-box {
              border: 2px solid #ccc;
              padding: 20px;
              border-radius: 10px;
              display: inline-block;
              background-color: #f9f9f9;
            }
            .stimulus-image {
              height: 200px;
              max-width: 200px;
              object-fit: contain;
            }
            .interlocutor-image {
              height: 250px;
            }
            .button-spacing {
              margin-top: 30px;
            }
          </style>

         <div class=""test-trial-container"" style=""display: flex; justify-content: center; gap: 40px; align-items: flex-start;"">

        
        <div class=""stimulus-box"">
        <img src=""stimuli/bear_adult_male_01.png"" class=""stimulus-image"">
        </div>

      
        <div class=""interlocutor-box"">
        <div class=""prompt-text"">What would I call this?</div>
        <div class=""button-spacing""></div>
        <img src=""interlocutor/adult_female_02_side.png"" class=""interlocutor-image"">
        </div>

        </div>

        <div class=""button-spacing""></div>
        ","1","true","Fobrul","Fob","[""Fobrik"",""Fobrul""]","rul","female","side","","","true","","","",""
"","","","","","html-keyboard-response","63","93629","0.0-61.0","view","long","Rul if the person was sideways, rik if the person was facing the front.","","null","<div style=""font-size: 48px;"">+</div>","null","","","","","","","","true","","","","","",""
"","","","","","html-button-response","64","94724","0.0-62.0-0.0","view","long","Rul if the person was sideways, rik if the person was facing the front.","","1095","
          <style>
            .test-trial-container {
              display: flex;
              align-items: center;
              justify-content: space-between;
              margin: 0 auto;
              max-width: 900px;
            }
            .test-stimulus {
              flex: 1;
              text-align: center;
            }
            .stimulus-box {
              border: 2px solid #ccc;
              padding: 20px;
              border-radius: 10px;
              display: inline-block;
              background-color: #f9f9f9;
            }
            .stimulus-image {
              height: 200px;
              max-width: 200px;
              object-fit: contain;
            }
            .interlocutor-image {
              height: 250px;
            }
            .button-spacing {
              margin-top: 30px;
            }
          </style>

         <div class=""test-trial-container"" style=""display: flex; justify-content: center; gap: 40px; align-items: flex-start;"">

        
        <div class=""stimulus-box"">
        <img src=""stimuli/pitcher_adult_01.png"" class=""stimulus-image"">
        </div>

      
        <div class=""interlocutor-box"">
        <div class=""prompt-text"">What would I call this?</div>
        <div class=""button-spacing""></div>
        <img src=""interlocutor/child_female_03_side.png"" class=""interlocutor-image"">
        </div>

        </div>

        <div class=""button-spacing""></div>
        ","0","true","Huxrul","Hux","[""Huxrul"",""Huxrik""]","rul","female","side","","","true","","","",""
"","","","","","html-keyboard-response","65","95236","0.0-63.0","view","long","Rul if the person was sideways, rik if the person was facing the front.","","null","<div style=""font-size: 48px;"">+</div>","null","","","","","","","","true","","","","","",""
"","","","","","html-button-response","66","97537","0.0-64.0-0.0","view","long","Rul if the person was sideways, rik if the person was facing the front.","","2301","
          <style>
            .test-trial-container {
              display: flex;
              align-items: center;
              justify-content: space-between;
              margin: 0 auto;
              max-width: 900px;
            }
            .test-stimulus {
              flex: 1;
              text-align: center;
            }
            .stimulus-box {
              border: 2px solid #ccc;
              padding: 20px;
              border-radius: 10px;
              display: inline-block;
              background-color: #f9f9f9;
            }
            .stimulus-image {
              height: 200px;
              max-width: 200px;
              object-fit: contain;
            }
            .interlocutor-image {
              height: 250px;
            }
            .button-spacing {
              margin-top: 30px;
            }
          </style>

         <div class=""test-trial-container"" style=""display: flex; justify-content: center; gap: 40px; align-items: flex-start;"">

        
        <div class=""stimulus-box"">
        <img src=""teststimuli/bird.svg"" class=""stimulus-image"">
        </div>

      
        <div class=""interlocutor-box"">
        <div class=""prompt-text"">What would I call this?</div>
        <div class=""button-spacing""></div>
        <img src=""interlocutor/child_female_02.png"" class=""interlocutor-image"">
        </div>

        </div>

        <div class=""button-spacing""></div>
        ","1","true","Telrik","Tel","[""Telrul"",""Telrik""]","rik","female","front","","","true","","","",""
"","","","","","html-keyboard-response","67","98038","0.0-65.0","view","long","Rul if the person was sideways, rik if the person was facing the front.","","null","<div style=""font-size: 48px;"">+</div>","null","","","","","","","","true","","","","","",""
"","","","","","html-button-response","68","98873","0.0-66.0-0.0","view","long","Rul if the person was sideways, rik if the person was facing the front.","","835","<p><strong>Attention Check</strong></p><p>Click the button labeled ""Right"".</p>","1","","","","","","","","","","true","","","attention-check","1"
"","","","","","html-button-response","69","101066","0.0-67.0-0.0","view","long","Rul if the person was sideways, rik if the person was facing the front.","","2192","
          <style>
            .test-trial-container {
              display: flex;
              align-items: center;
              justify-content: space-between;
              margin: 0 auto;
              max-width: 900px;
            }
            .test-stimulus {
              flex: 1;
              text-align: center;
            }
            .stimulus-box {
              border: 2px solid #ccc;
              padding: 20px;
              border-radius: 10px;
              display: inline-block;
              background-color: #f9f9f9;
            }
            .stimulus-image {
              height: 200px;
              max-width: 200px;
              object-fit: contain;
            }
            .interlocutor-image {
              height: 250px;
            }
            .button-spacing {
              margin-top: 30px;
            }
          </style>

         <div class=""test-trial-container"" style=""display: flex; justify-content: center; gap: 40px; align-items: flex-start;"">

        
        <div class=""stimulus-box"">
        <img src=""stimuli/gate_adult_01.png"" class=""stimulus-image"">
        </div>

      
        <div class=""interlocutor-box"">
        <div class=""prompt-text"">What would I call this?</div>
        <div class=""button-spacing""></div>
        <img src=""interlocutor/child_female_side.png"" class=""interlocutor-image"">
        </div>

        </div>

        <div class=""button-spacing""></div>
        ","1","true","Yorrul","Yor","[""Yorrik"",""Yorrul""]","rul","female","side","","","true","","","",""
"","","","","","html-keyboard-response","70","101571","0.0-68.0","view","long","Rul if the person was sideways, rik if the person was facing the front.","","null","<div style=""font-size: 48px;"">+</div>","null","","","","","","","","true","","","","","",""
"","","","","","html-button-response","71","102946","0.0-69.0-0.0","view","long","Rul if the person was sideways, rik if the person was facing the front.","","1375","
          <style>
            .test-trial-container {
              display: flex;
              align-items: center;
              justify-content: space-between;
              margin: 0 auto;
              max-width: 900px;
            }
            .test-stimulus {
              flex: 1;
              text-align: center;
            }
            .stimulus-box {
              border: 2px solid #ccc;
              padding: 20px;
              border-radius: 10px;
              display: inline-block;
              background-color: #f9f9f9;
            }
            .stimulus-image {
              height: 200px;
              max-width: 200px;
              object-fit: contain;
            }
            .interlocutor-image {
              height: 250px;
            }
            .button-spacing {
              margin-top: 30px;
            }
          </style>

         <div class=""test-trial-container"" style=""display: flex; justify-content: center; gap: 40px; align-items: flex-start;"">

        
        <div class=""stimulus-box"">
        <img src=""teststimuli/elder.svg"" class=""stimulus-image"">
        </div>

      
        <div class=""interlocutor-box"">
        <div class=""prompt-text"">What would I call this?</div>
        <div class=""button-spacing""></div>
        <img src=""interlocutor/child_female.png"" class=""interlocutor-image"">
        </div>

        </div>

        <div class=""button-spacing""></div>
        ","1","true","Gynrik","Gyn","[""Gynrul"",""Gynrik""]","rik","female","front","","","true","","","",""
"","","","","","html-keyboard-response","72","103456","0.0-70.0","view","long","Rul if the person was sideways, rik if the person was facing the front.","","null","<div style=""font-size: 48px;"">+</div>","null","","","","","","","","true","","","","","",""
"","","","","","html-button-response","73","106663","0.0-71.0-0.0","view","long","Rul if the person was sideways, rik if the person was facing the front.","","3207","
          <style>
            .test-trial-container {
              display: flex;
              align-items: center;
              justify-content: space-between;
              margin: 0 auto;
              max-width: 900px;
            }
            .test-stimulus {
              flex: 1;
              text-align: center;
            }
            .stimulus-box {
              border: 2px solid #ccc;
              padding: 20px;
              border-radius: 10px;
              display: inline-block;
              background-color: #f9f9f9;
            }
            .stimulus-image {
              height: 200px;
              max-width: 200px;
              object-fit: contain;
            }
            .interlocutor-image {
              height: 250px;
            }
            .button-spacing {
              margin-top: 30px;
            }
          </style>

         <div class=""test-trial-container"" style=""display: flex; justify-content: center; gap: 40px; align-items: flex-start;"">

        
        <div class=""stimulus-box"">
        <img src=""teststimuli/bag.svg"" class=""stimulus-image"">
        </div>

      
        <div class=""interlocutor-box"">
        <div class=""prompt-text"">What would I call this?</div>
        <div class=""button-spacing""></div>
        <img src=""interlocutor/teen_male_side.png"" class=""interlocutor-image"">
        </div>

        </div>

        <div class=""button-spacing""></div>
        ","1","true","Gulrul","Gul","[""Gulrik"",""Gulrul""]","rul","male","side","","","true","","","",""
"","","","","","html-keyboard-response","74","107164","0.0-72.0","view","long","Rul if the person was sideways, rik if the person was facing the front.","","null","<div style=""font-size: 48px;"">+</div>","null","","","","","","","","true","","","","","",""
"","","","","","html-button-response","75","108922","0.0-73.0-0.0","view","long","Rul if the person was sideways, rik if the person was facing the front.","","1758","
          <style>
            .test-trial-container {
              display: flex;
              align-items: center;
              justify-content: space-between;
              margin: 0 auto;
              max-width: 900px;
            }
            .test-stimulus {
              flex: 1;
              text-align: center;
            }
            .stimulus-box {
              border: 2px solid #ccc;
              padding: 20px;
              border-radius: 10px;
              display: inline-block;
              background-color: #f9f9f9;
            }
            .stimulus-image {
              height: 200px;
              max-width: 200px;
              object-fit: contain;
            }
            .interlocutor-image {
              height: 250px;
            }
            .button-spacing {
              margin-top: 30px;
            }
          </style>

         <div class=""test-trial-container"" style=""display: flex; justify-content: center; gap: 40px; align-items: flex-start;"">

        
        <div class=""stimulus-box"">
        <img src=""teststimuli/horse.svg"" class=""stimulus-image"">
        </div>

      
        <div class=""interlocutor-box"">
        <div class=""prompt-text"">What would I call this?</div>
        <div class=""button-spacing""></div>
        <img src=""interlocutor/child_female_02.png"" class=""interlocutor-image"">
        </div>

        </div>

        <div class=""button-spacing""></div>
        ","0","true","Bewrik","Bew","[""Bewrik"",""Bewrul""]","rik","female","front","","","true","","","",""
"","","","","","html-keyboard-response","76","109427","0.0-74.0","view","long","Rul if the person was sideways, rik if the person was facing the front.","","null","<div style=""font-size: 48px;"">+</div>","null","","","","","","","","true","","","","","",""
"","","","","","html-button-response","77","110587","0.0-75.0-0.0","view","long","Rul if the person was sideways, rik if the person was facing the front.","","1160","
          <style>
            .test-trial-container {
              display: flex;
              align-items: center;
              justify-content: space-between;
              margin: 0 auto;
              max-width: 900px;
            }
            .test-stimulus {
              flex: 1;
              text-align: center;
            }
            .stimulus-box {
              border: 2px solid #ccc;
              padding: 20px;
              border-radius: 10px;
              display: inline-block;
              background-color: #f9f9f9;
            }
            .stimulus-image {
              height: 200px;
              max-width: 200px;
              object-fit: contain;
            }
            .interlocutor-image {
              height: 250px;
            }
            .button-spacing {
              margin-top: 30px;
            }
          </style>

         <div class=""test-trial-container"" style=""display: flex; justify-content: center; gap: 40px; align-items: flex-start;"">

        
        <div class=""stimulus-box"">
        <img src=""teststimuli/woman.svg"" class=""stimulus-image"">
        </div>

      
        <div class=""interlocutor-box"">
        <div class=""prompt-text"">What would I call this?</div>
        <div class=""button-spacing""></div>
        <img src=""interlocutor/child_male_02.png"" class=""interlocutor-image"">
        </div>

        </div>

        <div class=""button-spacing""></div>
        ","1","true","Daprik","Dap","[""Daprul"",""Daprik""]","rik","male","front","","","true","","","",""
"","","","","","html-keyboard-response","78","111096","0.0-76.0","view","long","Rul if the person was sideways, rik if the person was facing the front.","","null","<div style=""font-size: 48px;"">+</div>","null","","","","","","","","true","","","","","",""
"","","","","","html-button-response","79","112905","0.0-77.0-0.0","view","long","Rul if the person was sideways, rik if the person was facing the front.","","1809","
          <style>
            .test-trial-container {
              display: flex;
              align-items: center;
              justify-content: space-between;
              margin: 0 auto;
              max-width: 900px;
            }
            .test-stimulus {
              flex: 1;
              text-align: center;
            }
            .stimulus-box {
              border: 2px solid #ccc;
              padding: 20px;
              border-radius: 10px;
              display: inline-block;
              background-color: #f9f9f9;
            }
            .stimulus-image {
              height: 200px;
              max-width: 200px;
              object-fit: contain;
            }
            .interlocutor-image {
              height: 250px;
            }
            .button-spacing {
              margin-top: 30px;
            }
          </style>

         <div class=""test-trial-container"" style=""display: flex; justify-content: center; gap: 40px; align-items: flex-start;"">

        
        <div class=""stimulus-box"">
        <img src=""teststimuli/corn.svg"" class=""stimulus-image"">
        </div>

      
        <div class=""interlocutor-box"">
        <div class=""prompt-text"">What would I call this?</div>
        <div class=""button-spacing""></div>
        <img src=""interlocutor/elder_male.png"" class=""interlocutor-image"">
        </div>

        </div>

        <div class=""button-spacing""></div>
        ","0","true","Lumrik","Lum","[""Lumrik"",""Lumrul""]","rik","male","front","","","true","","","",""
"","","","","","html-keyboard-response","80","113416","0.0-78.0","view","long","Rul if the person was sideways, rik if the person was facing the front.","","null","<div style=""font-size: 48px;"">+</div>","null","","","","","","","","true","","","","","",""
"","","","","","html-button-response","81","114592","0.0-79.0-0.0","view","long","Rul if the person was sideways, rik if the person was facing the front.","","1176","
          <style>
            .test-trial-container {
              display: flex;
              align-items: center;
              justify-content: space-between;
              margin: 0 auto;
              max-width: 900px;
            }
            .test-stimulus {
              flex: 1;
              text-align: center;
            }
            .stimulus-box {
              border: 2px solid #ccc;
              padding: 20px;
              border-radius: 10px;
              display: inline-block;
              background-color: #f9f9f9;
            }
            .stimulus-image {
              height: 200px;
              max-width: 200px;
              object-fit: contain;
            }
            .interlocutor-image {
              height: 250px;
            }
            .button-spacing {
              margin-top: 30px;
            }
          </style>

         <div class=""test-trial-container"" style=""display: flex; justify-content: center; gap: 40px; align-items: flex-start;"">

        
        <div class=""stimulus-box"">
        <img src=""teststimuli/school.svg"" class=""stimulus-image"">
        </div>

      
        <div class=""interlocutor-box"">
        <div class=""prompt-text"">What would I call this?</div>
        <div class=""button-spacing""></div>
        <img src=""interlocutor/adult_male_side.png"" class=""interlocutor-image"">
        </div>

        </div>

        <div class=""button-spacing""></div>
        ","0","true","Rivrul","Riv","[""Rivrul"",""Rivrik""]","rul","male","side","","","true","","","",""
"","","","","","html-keyboard-response","82","115108","0.0-80.0","view","long","Rul if the person was sideways, rik if the person was facing the front.","","null","<div style=""font-size: 48px;"">+</div>","null","","","","","","","","true","","","","","",""
"","","","","","html-button-response","83","116622","0.0-81.0-0.0","view","long","Rul if the person was sideways, rik if the person was facing the front.","","1514","
          <style>
            .test-trial-container {
              display: flex;
              align-items: center;
              justify-content: space-between;
              margin: 0 auto;
              max-width: 900px;
            }
            .test-stimulus {
              flex: 1;
              text-align: center;
            }
            .stimulus-box {
              border: 2px solid #ccc;
              padding: 20px;
              border-radius: 10px;
              display: inline-block;
              background-color: #f9f9f9;
            }
            .stimulus-image {
              height: 200px;
              max-width: 200px;
              object-fit: contain;
            }
            .interlocutor-image {
              height: 250px;
            }
            .button-spacing {
              margin-top: 30px;
            }
          </style>

         <div class=""test-trial-container"" style=""display: flex; justify-content: center; gap: 40px; align-items: flex-start;"">

        
        <div class=""stimulus-box"">
        <img src=""stimuli/bokchoy_adult_01.png"" class=""stimulus-image"">
        </div>

      
        <div class=""interlocutor-box"">
        <div class=""prompt-text"">What would I call this?</div>
        <div class=""button-spacing""></div>
        <img src=""interlocutor/adult_female_02.png"" class=""interlocutor-image"">
        </div>

        </div>

        <div class=""button-spacing""></div>
        ","0","true","Danrik","Dan","[""Danrik"",""Danrul""]","rik","female","front","","","true","","","",""
"","","","","","html-keyboard-response","84","117126","0.0-82.0","view","long","Rul if the person was sideways, rik if the person was facing the front.","","null","<div style=""font-size: 48px;"">+</div>","null","","","","","","","","true","","","","","",""
"","","","","","html-button-response","85","119100","0.0-83.0-0.0","view","long","Rul if the person was sideways, rik if the person was facing the front.","","1973","
          <style>
            .test-trial-container {
              display: flex;
              align-items: center;
              justify-content: space-between;
              margin: 0 auto;
              max-width: 900px;
            }
            .test-stimulus {
              flex: 1;
              text-align: center;
            }
            .stimulus-box {
              border: 2px solid #ccc;
              padding: 20px;
              border-radius: 10px;
              display: inline-block;
              background-color: #f9f9f9;
            }
            .stimulus-image {
              height: 200px;
              max-width: 200px;
              object-fit: contain;
            }
            .interlocutor-image {
              height: 250px;
            }
            .button-spacing {
              margin-top: 30px;
            }
          </style>

         <div class=""test-trial-container"" style=""display: flex; justify-content: center; gap: 40px; align-items: flex-start;"">

        
        <div class=""stimulus-box"">
        <img src=""teststimuli/cherry.svg"" class=""stimulus-image"">
        </div>

      
        <div class=""interlocutor-box"">
        <div class=""prompt-text"">What would I call this?</div>
        <div class=""button-spacing""></div>
        <img src=""interlocutor/adult_male_side.png"" class=""interlocutor-image"">
        </div>

        </div>

        <div class=""button-spacing""></div>
        ","0","true","Fumrul","Fum","[""Fumrul"",""Fumrik""]","rul","male","side","","","true","","","",""
"","","","","","html-keyboard-response","86","119611","0.0-84.0","view","long","Rul if the person was sideways, rik if the person was facing the front.","","null","<div style=""font-size: 48px;"">+</div>","null","","","","","","","","true","","","","","",""
"","","","","","html-button-response","87","121633","0.0-85.0-0.0","view","long","Rul if the person was sideways, rik if the person was facing the front.","","2022","
          <style>
            .test-trial-container {
              display: flex;
              align-items: center;
              justify-content: space-between;
              margin: 0 auto;
              max-width: 900px;
            }
            .test-stimulus {
              flex: 1;
              text-align: center;
            }
            .stimulus-box {
              border: 2px solid #ccc;
              padding: 20px;
              border-radius: 10px;
              display: inline-block;
              background-color: #f9f9f9;
            }
            .stimulus-image {
              height: 200px;
              max-width: 200px;
              object-fit: contain;
            }
            .interlocutor-image {
              height: 250px;
            }
            .button-spacing {
              margin-top: 30px;
            }
          </style>

         <div class=""test-trial-container"" style=""display: flex; justify-content: center; gap: 40px; align-items: flex-start;"">

        
        <div class=""stimulus-box"">
        <img src=""teststimuli/candy.svg"" class=""stimulus-image"">
        </div>

      
        <div class=""interlocutor-box"">
        <div class=""prompt-text"">What would I call this?</div>
        <div class=""button-spacing""></div>
        <img src=""interlocutor/child_female_side.png"" class=""interlocutor-image"">
        </div>

        </div>

        <div class=""button-spacing""></div>
        ","0","true","Wibrul","Wib","[""Wibrul"",""Wibrik""]","rul","female","side","","","true","","","",""
"","","","","","html-keyboard-response","88","122139","0.0-86.0","view","long","Rul if the person was sideways, rik if the person was facing the front.","","null","<div style=""font-size: 48px;"">+</div>","null","","","","","","","","true","","","","","",""
"","","","","","html-button-response","89","123192","0.0-87.0-0.0","view","long","Rul if the person was sideways, rik if the person was facing the front.","","1053","<p><strong>Attention Check</strong></p><p>Click the button labeled ""Right"".</p>","1","","","","","","","","","","true","","","attention-check","1"
"","","","","","html-button-response","90","126162","0.0-88.0-0.0","view","long","Rul if the person was sideways, rik if the person was facing the front.","","2970","
          <style>
            .test-trial-container {
              display: flex;
              align-items: center;
              justify-content: space-between;
              margin: 0 auto;
              max-width: 900px;
            }
            .test-stimulus {
              flex: 1;
              text-align: center;
            }
            .stimulus-box {
              border: 2px solid #ccc;
              padding: 20px;
              border-radius: 10px;
              display: inline-block;
              background-color: #f9f9f9;
            }
            .stimulus-image {
              height: 200px;
              max-width: 200px;
              object-fit: contain;
            }
            .interlocutor-image {
              height: 250px;
            }
            .button-spacing {
              margin-top: 30px;
            }
          </style>

         <div class=""test-trial-container"" style=""display: flex; justify-content: center; gap: 40px; align-items: flex-start;"">

        
        <div class=""stimulus-box"">
        <img src=""teststimuli/tree.svg"" class=""stimulus-image"">
        </div>

      
        <div class=""interlocutor-box"">
        <div class=""prompt-text"">What would I call this?</div>
        <div class=""button-spacing""></div>
        <img src=""interlocutor/child_female_03_side.png"" class=""interlocutor-image"">
        </div>

        </div>

        <div class=""button-spacing""></div>
        ","1","true","Jorrul","Jor","[""Jorrik"",""Jorrul""]","rul","female","side","","","true","","","",""
"","","","","","html-keyboard-response","91","126663","0.0-89.0","view","long","Rul if the person was sideways, rik if the person was facing the front.","","null","<div style=""font-size: 48px;"">+</div>","null","","","","","","","","true","","","","","",""
"","","","","","html-button-response","92","127832","0.0-90.0-0.0","view","long","Rul if the person was sideways, rik if the person was facing the front.","","1169","
          <style>
            .test-trial-container {
              display: flex;
              align-items: center;
              justify-content: space-between;
              margin: 0 auto;
              max-width: 900px;
            }
            .test-stimulus {
              flex: 1;
              text-align: center;
            }
            .stimulus-box {
              border: 2px solid #ccc;
              padding: 20px;
              border-radius: 10px;
              display: inline-block;
              background-color: #f9f9f9;
            }
            .stimulus-image {
              height: 200px;
              max-width: 200px;
              object-fit: contain;
            }
            .interlocutor-image {
              height: 250px;
            }
            .button-spacing {
              margin-top: 30px;
            }
          </style>

         <div class=""test-trial-container"" style=""display: flex; justify-content: center; gap: 40px; align-items: flex-start;"">

        
        <div class=""stimulus-box"">
        <img src=""teststimuli/car.svg"" class=""stimulus-image"">
        </div>

      
        <div class=""interlocutor-box"">
        <div class=""prompt-text"">What would I call this?</div>
        <div class=""button-spacing""></div>
        <img src=""interlocutor/elder_male.png"" class=""interlocutor-image"">
        </div>

        </div>

        <div class=""button-spacing""></div>
        ","0","true","Ronrik","Ron","[""Ronrik"",""Ronrul""]","rik","male","front","","","true","","","",""
"","","","","","html-keyboard-response","93","128336","0.0-91.0","view","long","Rul if the person was sideways, rik if the person was facing the front.","","null","<div style=""font-size: 48px;"">+</div>","null","","","","","","","","true","","","","","",""
"","","","","","html-button-response","94","129316","0.0-92.0-0.0","view","long","Rul if the person was sideways, rik if the person was facing the front.","","979","
          <style>
            .test-trial-container {
              display: flex;
              align-items: center;
              justify-content: space-between;
              margin: 0 auto;
              max-width: 900px;
            }
            .test-stimulus {
              flex: 1;
              text-align: center;
            }
            .stimulus-box {
              border: 2px solid #ccc;
              padding: 20px;
              border-radius: 10px;
              display: inline-block;
              background-color: #f9f9f9;
            }
            .stimulus-image {
              height: 200px;
              max-width: 200px;
              object-fit: contain;
            }
            .interlocutor-image {
              height: 250px;
            }
            .button-spacing {
              margin-top: 30px;
            }
          </style>

         <div class=""test-trial-container"" style=""display: flex; justify-content: center; gap: 40px; align-items: flex-start;"">

        
        <div class=""stimulus-box"">
        <img src=""teststimuli/bell.svg"" class=""stimulus-image"">
        </div>

      
        <div class=""interlocutor-box"">
        <div class=""prompt-text"">What would I call this?</div>
        <div class=""button-spacing""></div>
        <img src=""interlocutor/adult_male.png"" class=""interlocutor-image"">
        </div>

        </div>

        <div class=""button-spacing""></div>
        ","0","true","Mozrik","Moz","[""Mozrik"",""Mozrul""]","rik","male","front","","","true","","","",""
"","","","","","html-keyboard-response","95","129831","0.0-93.0","view","long","Rul if the person was sideways, rik if the person was facing the front.","","null","<div style=""font-size: 48px;"">+</div>","null","","","","","","","","true","","","","","",""
"","","","","","html-button-response","96","131027","0.0-94.0-0.0","view","long","Rul if the person was sideways, rik if the person was facing the front.","","1196","
          <style>
            .test-trial-container {
              display: flex;
              align-items: center;
              justify-content: space-between;
              margin: 0 auto;
              max-width: 900px;
            }
            .test-stimulus {
              flex: 1;
              text-align: center;
            }
            .stimulus-box {
              border: 2px solid #ccc;
              padding: 20px;
              border-radius: 10px;
              display: inline-block;
              background-color: #f9f9f9;
            }
            .stimulus-image {
              height: 200px;
              max-width: 200px;
              object-fit: contain;
            }
            .interlocutor-image {
              height: 250px;
            }
            .button-spacing {
              margin-top: 30px;
            }
          </style>

         <div class=""test-trial-container"" style=""display: flex; justify-content: center; gap: 40px; align-items: flex-start;"">

        
        <div class=""stimulus-box"">
        <img src=""teststimuli/fish.svg"" class=""stimulus-image"">
        </div>

      
        <div class=""interlocutor-box"">
        <div class=""prompt-text"">What would I call this?</div>
        <div class=""button-spacing""></div>
        <img src=""interlocutor/adult_male_02_side.png"" class=""interlocutor-image"">
        </div>

        </div>

        <div class=""button-spacing""></div>
        ","0","true","Selrul","Sel","[""Selrul"",""Selrik""]","rul","male","side","","","true","","","",""
"","","","","","html-keyboard-response","97","131528","0.0-95.0","view","long","Rul if the person was sideways, rik if the person was facing the front.","","null","<div style=""font-size: 48px;"">+</div>","null","","","","","","","","true","","","","","",""
"","","","","","survey-text","98","162610","0.0-96.0","view","long","Rul if the person was sideways, rik if the person was facing the front.","","31078","","{""Q0"":""Rul if the person was sideways, rik if the person was facing the front.""}","","","","","","","","","","","","","",""
