"success","timeout","failed_images","failed_audio","failed_video","trial_type","trial_index","time_elapsed","internal_node_id","main_cue","condition","cue_guess","view_history","rt","stimulus","response","test_trial","correct_choice","prompt_label","choices","suffix","gender","view","is_fixation","attention_check","correct","typed_response","expected_label","task","correct_response"
"true","false","[]","[]","[]","preload","0","12","0.0-0.0","view","short","There are 2 types of names and they each type has the same ending","","","","","","","","","","","","","","","","","",""
"","","","","","instructions","1","56470","0.0-1.0","view","short","There are 2 types of names and they each type has the same ending","[{""page_index"":0,""viewing_time"":56456}]","56457","","","","","","","","","","","","","","","",""
"","","","","","instructions","2","129955","0.0-2.0","view","short","There are 2 types of names and they each type has the same ending","[{""page_index"":0,""viewing_time"":73483}]","73484","","","","","","","","","","","","","","","",""
"","","","","","html-button-response","3","148069","0.0-3.0-0.0","view","short","There are 2 types of names and they each type has the same ending","","18111","
          <style>
            .quote-box {
              border: 2px solid #ccc;
              padding: 16px;
              margin: 20px auto;
              border-radius: 8px;
              background-color: #ffffff;
              text-align: center;
            }
            .stimuli-image {
              display: block;
              margin: 10px auto;
              max-height: 150px;
            }
            .button-spacing {
              margin-top: 30px;
            }
          </style>

          <div style=""display: flex; align-items: center;"">
            <div style=""flex: 1; padding-right: 20px;"">
              <div class=""quote-box"">
                <p>This is called <strong>Yor</strong>.</p>
                <img src=""stimuli/gate_adult_01.png"" class=""stimuli-image"">
              </div>

              <p style=""text-align: center;"">What is this called?</p>

              <div class=""quote-box"">
                <img src=""stimuli/gate_child_01.png"" class=""stimuli-image"">
              </div>

              <div class=""button-spacing""></div>
            </div>

            <div style=""flex-shrink: 0; width: 180px; height: 250px; display: flex; align-items: center; justify-content: center;"">
            <img src=""interlocutor/child_female.png"" style=""width: 100%; height: 100%; object-fit: contain;"" />
            </div>
        ","0","false","Yorrik","Yor","[""Yorrik"",""Yorrul""]","rik","female","front","false","false","true","","","",""
"","","","","","html-keyboard-response","4","148581","0.0-4.0","view","short","There are 2 types of names and they each type has the same ending","","null","<div style=""font-size: 48px;"">+</div>","null","","","","","","","","true","","","","","",""
"","","","","","html-button-response","5","162533","0.0-5.0-0.0","view","short","There are 2 types of names and they each type has the same ending","","13951","
          <style>
            .quote-box {
              border: 2px solid #ccc;
              padding: 16px;
              margin: 20px auto;
              border-radius: 8px;
              background-color: #ffffff;
              text-align: center;
            }
            .stimuli-image {
              display: block;
              margin: 10px auto;
              max-height: 150px;
            }
            .button-spacing {
              margin-top: 30px;
            }
          </style>

          <div style=""display: flex; align-items: center;"">
            <div style=""flex: 1; padding-right: 20px;"">
              <div class=""quote-box"">
                <p>This is called <strong>Fon</strong>.</p>
                <img src=""stimuli/drawer.png"" class=""stimuli-image"">
              </div>

              <p style=""text-align: center;"">What is this called?</p>

              <div class=""quote-box"">
                <img src=""stimuli/warddrobe.jpg"" class=""stimuli-image"">
              </div>

              <div class=""button-spacing""></div>
            </div>

            <div style=""flex-shrink: 0; width: 180px; height: 250px; display: flex; align-items: center; justify-content: center;"">
            <img src=""interlocutor/child_male_02.png"" style=""width: 100%; height: 100%; object-fit: contain;"" />
            </div>
        ","1","false","Fonrik","Fon","[""Fonrik"",""Fonrul""]","rik","male","front","false","false","false","","","",""
"","","","","","html-keyboard-response","6","163544","0.0-5.0-1.0-0.0","view","short","There are 2 types of names and they each type has the same ending","","null","<p style='color:red; font-size: 24px;'>Incorrect! Please try again.</p>","null","","","","","","","","","","","","","",""
"","","","","","html-button-response","7","167614","0.0-5.1-0.1","view","short","There are 2 types of names and they each type has the same ending","","4068","
          <style>
            .quote-box {
              border: 2px solid #ccc;
              padding: 16px;
              margin: 20px auto;
              border-radius: 8px;
              background-color: #ffffff;
              text-align: center;
            }
            .stimuli-image {
              display: block;
              margin: 10px auto;
              max-height: 150px;
            }
            .button-spacing {
              margin-top: 30px;
            }
          </style>

          <div style=""display: flex; align-items: center;"">
            <div style=""flex: 1; padding-right: 20px;"">
              <div class=""quote-box"">
                <p>This is called <strong>Fon</strong>.</p>
                <img src=""stimuli/drawer.png"" class=""stimuli-image"">
              </div>

              <p style=""text-align: center;"">What is this called?</p>

              <div class=""quote-box"">
                <img src=""stimuli/warddrobe.jpg"" class=""stimuli-image"">
              </div>

              <div class=""button-spacing""></div>
            </div>

            <div style=""flex-shrink: 0; width: 180px; height: 250px; display: flex; align-items: center; justify-content: center;"">
            <img src=""interlocutor/child_male_02.png"" style=""width: 100%; height: 100%; object-fit: contain;"" />
            </div>
        ","0","false","Fonrik","Fon","[""Fonrik"",""Fonrul""]","rik","male","front","false","false","true","","","",""
"","","","","","html-keyboard-response","8","168128","0.0-6.0","view","short","There are 2 types of names and they each type has the same ending","","null","<div style=""font-size: 48px;"">+</div>","null","","","","","","","","true","","","","","",""
"","","","","","html-button-response","9","177047","0.0-7.0-0.0","view","short","There are 2 types of names and they each type has the same ending","","8917","
          <style>
            .quote-box {
              border: 2px solid #ccc;
              padding: 16px;
              margin: 20px auto;
              border-radius: 8px;
              background-color: #ffffff;
              text-align: center;
            }
            .stimuli-image {
              display: block;
              margin: 10px auto;
              max-height: 150px;
            }
            .button-spacing {
              margin-top: 30px;
            }
          </style>

          <div style=""display: flex; align-items: center;"">
            <div style=""flex: 1; padding-right: 20px;"">
              <div class=""quote-box"">
                <p>This is called <strong>Pib</strong>.</p>
                <img src=""stimuli/candleholder_adult_01.png"" class=""stimuli-image"">
              </div>

              <p style=""text-align: center;"">What is this called?</p>

              <div class=""quote-box"">
                <img src=""stimuli/candleholder_child_01.png"" class=""stimuli-image"">
              </div>

              <div class=""button-spacing""></div>
            </div>

            <div style=""flex-shrink: 0; width: 180px; height: 250px; display: flex; align-items: center; justify-content: center;"">
            <img src=""interlocutor/adult_female_02_side.png"" style=""width: 100%; height: 100%; object-fit: contain;"" />
            </div>
        ","0","false","Pibrul","Pib","[""Pibrik"",""Pibrul""]","rul","female","side","false","false","false","","","",""
"","","","","","html-keyboard-response","10","178061","0.0-7.0-1.0-0.0","view","short","There are 2 types of names and they each type has the same ending","","null","<p style='color:red; font-size: 24px;'>Incorrect! Please try again.</p>","null","","","","","","","","","","","","","",""
"","","","","","html-button-response","11","181363","0.0-7.1-0.1","view","short","There are 2 types of names and they each type has the same ending","","3300","
          <style>
            .quote-box {
              border: 2px solid #ccc;
              padding: 16px;
              margin: 20px auto;
              border-radius: 8px;
              background-color: #ffffff;
              text-align: center;
            }
            .stimuli-image {
              display: block;
              margin: 10px auto;
              max-height: 150px;
            }
            .button-spacing {
              margin-top: 30px;
            }
          </style>

          <div style=""display: flex; align-items: center;"">
            <div style=""flex: 1; padding-right: 20px;"">
              <div class=""quote-box"">
                <p>This is called <strong>Pib</strong>.</p>
                <img src=""stimuli/candleholder_adult_01.png"" class=""stimuli-image"">
              </div>

              <p style=""text-align: center;"">What is this called?</p>

              <div class=""quote-box"">
                <img src=""stimuli/candleholder_child_01.png"" class=""stimuli-image"">
              </div>

              <div class=""button-spacing""></div>
            </div>

            <div style=""flex-shrink: 0; width: 180px; height: 250px; display: flex; align-items: center; justify-content: center;"">
            <img src=""interlocutor/adult_female_02_side.png"" style=""width: 100%; height: 100%; object-fit: contain;"" />
            </div>
        ","1","false","Pibrul","Pib","[""Pibrik"",""Pibrul""]","rul","female","side","false","false","true","","","",""
"","","","","","html-keyboard-response","12","181875","0.0-8.0","view","short","There are 2 types of names and they each type has the same ending","","null","<div style=""font-size: 48px;"">+</div>","null","","","","","","","","true","","","","","",""
"","","","","","survey-text","13","203111","0.0-9.0-0.0","view","short","There are 2 types of names and they each type has the same ending","","21229","","{""Q0"":""Pibrul""}","","","","","","","","","true","true","pibrul","pibrul","",""
"","","","","","html-button-response","14","214106","0.0-10.0-0.0","view","short","There are 2 types of names and they each type has the same ending","","10993","
          <style>
            .quote-box {
              border: 2px solid #ccc;
              padding: 16px;
              margin: 20px auto;
              border-radius: 8px;
              background-color: #ffffff;
              text-align: center;
            }
            .stimuli-image {
              display: block;
              margin: 10px auto;
              max-height: 150px;
            }
            .button-spacing {
              margin-top: 30px;
            }
          </style>

          <div style=""display: flex; align-items: center;"">
            <div style=""flex: 1; padding-right: 20px;"">
              <div class=""quote-box"">
                <p>This is called <strong>Ara</strong>.</p>
                <img src=""stimuli/camera_large.jpg"" class=""stimuli-image"">
              </div>

              <p style=""text-align: center;"">What is this called?</p>

              <div class=""quote-box"">
                <img src=""stimuli/camera_small.jpg"" class=""stimuli-image"">
              </div>

              <div class=""button-spacing""></div>
            </div>

            <div style=""flex-shrink: 0; width: 180px; height: 250px; display: flex; align-items: center; justify-content: center;"">
            <img src=""interlocutor/teen_male_side.png"" style=""width: 100%; height: 100%; object-fit: contain;"" />
            </div>
        ","0","false","Ararul","Ara","[""Ararik"",""Ararul""]","rul","male","side","false","false","false","","","",""
"","","","","","html-keyboard-response","15","215118","0.0-10.0-1.0-0.0","view","short","There are 2 types of names and they each type has the same ending","","null","<p style='color:red; font-size: 24px;'>Incorrect! Please try again.</p>","null","","","","","","","","","","","","","",""
"","","","","","html-button-response","16","218271","0.0-10.1-0.1","view","short","There are 2 types of names and they each type has the same ending","","3152","
          <style>
            .quote-box {
              border: 2px solid #ccc;
              padding: 16px;
              margin: 20px auto;
              border-radius: 8px;
              background-color: #ffffff;
              text-align: center;
            }
            .stimuli-image {
              display: block;
              margin: 10px auto;
              max-height: 150px;
            }
            .button-spacing {
              margin-top: 30px;
            }
          </style>

          <div style=""display: flex; align-items: center;"">
            <div style=""flex: 1; padding-right: 20px;"">
              <div class=""quote-box"">
                <p>This is called <strong>Ara</strong>.</p>
                <img src=""stimuli/camera_large.jpg"" class=""stimuli-image"">
              </div>

              <p style=""text-align: center;"">What is this called?</p>

              <div class=""quote-box"">
                <img src=""stimuli/camera_small.jpg"" class=""stimuli-image"">
              </div>

              <div class=""button-spacing""></div>
            </div>

            <div style=""flex-shrink: 0; width: 180px; height: 250px; display: flex; align-items: center; justify-content: center;"">
            <img src=""interlocutor/teen_male_side.png"" style=""width: 100%; height: 100%; object-fit: contain;"" />
            </div>
        ","1","false","Ararul","Ara","[""Ararik"",""Ararul""]","rul","male","side","false","false","true","","","",""
"","","","","","html-keyboard-response","17","218784","0.0-11.0","view","short","There are 2 types of names and they each type has the same ending","","null","<div style=""font-size: 48px;"">+</div>","null","","","","","","","","true","","","","","",""
"","","","","","html-button-response","18","226537","0.0-12.0-0.0","view","short","There are 2 types of names and they each type has the same ending","","7752","
          <style>
            .quote-box {
              border: 2px solid #ccc;
              padding: 16px;
              margin: 20px auto;
              border-radius: 8px;
              background-color: #ffffff;
              text-align: center;
            }
            .stimuli-image {
              display: block;
              margin: 10px auto;
              max-height: 150px;
            }
            .button-spacing {
              margin-top: 30px;
            }
          </style>

          <div style=""display: flex; align-items: center;"">
            <div style=""flex: 1; padding-right: 20px;"">
              <div class=""quote-box"">
                <p>This is called <strong>Han</strong>.</p>
                <img src=""stimuli/chair_adult_02.png"" class=""stimuli-image"">
              </div>

              <p style=""text-align: center;"">What is this called?</p>

              <div class=""quote-box"">
                <img src=""stimuli/chair_small.png"" class=""stimuli-image"">
              </div>

              <div class=""button-spacing""></div>
            </div>

            <div style=""flex-shrink: 0; width: 180px; height: 250px; display: flex; align-items: center; justify-content: center;"">
            <img src=""interlocutor/child_male_02.png"" style=""width: 100%; height: 100%; object-fit: contain;"" />
            </div>
        ","0","false","Hanrik","Han","[""Hanrik"",""Hanrul""]","rik","male","front","false","false","true","","","",""
"","","","","","html-keyboard-response","19","227050","0.0-13.0","view","short","There are 2 types of names and they each type has the same ending","","null","<div style=""font-size: 48px;"">+</div>","null","","","","","","","","true","","","","","",""
"","","","","","html-button-response","20","235169","0.0-14.0-0.0","view","short","There are 2 types of names and they each type has the same ending","","8118","
          <style>
            .quote-box {
              border: 2px solid #ccc;
              padding: 16px;
              margin: 20px auto;
              border-radius: 8px;
              background-color: #ffffff;
              text-align: center;
            }
            .stimuli-image {
              display: block;
              margin: 10px auto;
              max-height: 150px;
            }
            .button-spacing {
              margin-top: 30px;
            }
          </style>

          <div style=""display: flex; align-items: center;"">
            <div style=""flex: 1; padding-right: 20px;"">
              <div class=""quote-box"">
                <p>This is called <strong>Nuv</strong>.</p>
                <img src=""stimuli/asteroid_small.png"" class=""stimuli-image"">
              </div>

              <p style=""text-align: center;"">What is this called?</p>

              <div class=""quote-box"">
                <img src=""stimuli/asteroid_large.jpg"" class=""stimuli-image"">
              </div>

              <div class=""button-spacing""></div>
            </div>

            <div style=""flex-shrink: 0; width: 180px; height: 250px; display: flex; align-items: center; justify-content: center;"">
            <img src=""interlocutor/child_male_02.png"" style=""width: 100%; height: 100%; object-fit: contain;"" />
            </div>
        ","1","false","Nuvrik","Nuv","[""Nuvrik"",""Nuvrul""]","rik","male","front","false","false","false","","","",""
"","","","","","html-keyboard-response","21","236175","0.0-14.0-1.0-0.0","view","short","There are 2 types of names and they each type has the same ending","","null","<p style='color:red; font-size: 24px;'>Incorrect! Please try again.</p>","null","","","","","","","","","","","","","",""
"","","","","","html-button-response","22","237867","0.0-14.1-0.1","view","short","There are 2 types of names and they each type has the same ending","","1691","
          <style>
            .quote-box {
              border: 2px solid #ccc;
              padding: 16px;
              margin: 20px auto;
              border-radius: 8px;
              background-color: #ffffff;
              text-align: center;
            }
            .stimuli-image {
              display: block;
              margin: 10px auto;
              max-height: 150px;
            }
            .button-spacing {
              margin-top: 30px;
            }
          </style>

          <div style=""display: flex; align-items: center;"">
            <div style=""flex: 1; padding-right: 20px;"">
              <div class=""quote-box"">
                <p>This is called <strong>Nuv</strong>.</p>
                <img src=""stimuli/asteroid_small.png"" class=""stimuli-image"">
              </div>

              <p style=""text-align: center;"">What is this called?</p>

              <div class=""quote-box"">
                <img src=""stimuli/asteroid_large.jpg"" class=""stimuli-image"">
              </div>

              <div class=""button-spacing""></div>
            </div>

            <div style=""flex-shrink: 0; width: 180px; height: 250px; display: flex; align-items: center; justify-content: center;"">
            <img src=""interlocutor/child_male_02.png"" style=""width: 100%; height: 100%; object-fit: contain;"" />
            </div>
        ","0","false","Nuvrik","Nuv","[""Nuvrik"",""Nuvrul""]","rik","male","front","false","false","true","","","",""
"","","","","","html-keyboard-response","23","238380","0.0-15.0","view","short","There are 2 types of names and they each type has the same ending","","null","<div style=""font-size: 48px;"">+</div>","null","","","","","","","","true","","","","","",""
"","","","","","survey-text","24","250634","0.0-16.0-0.0","view","short","There are 2 types of names and they each type has the same ending","","12251","","{""Q0"":""Nuvrik""}","","","","","","","","","true","true","nuvrik","nuvrik","",""
"","","","","","html-button-response","25","266746","0.0-17.0-0.0","view","short","There are 2 types of names and they each type has the same ending","","16110","
          <style>
            .quote-box {
              border: 2px solid #ccc;
              padding: 16px;
              margin: 20px auto;
              border-radius: 8px;
              background-color: #ffffff;
              text-align: center;
            }
            .stimuli-image {
              display: block;
              margin: 10px auto;
              max-height: 150px;
            }
            .button-spacing {
              margin-top: 30px;
            }
          </style>

          <div style=""display: flex; align-items: center;"">
            <div style=""flex: 1; padding-right: 20px;"">
              <div class=""quote-box"">
                <p>This is called <strong>Rim</strong>.</p>
                <img src=""stimuli/light_small.jpeg"" class=""stimuli-image"">
              </div>

              <p style=""text-align: center;"">What is this called?</p>

              <div class=""quote-box"">
                <img src=""stimuli/light_large.png"" class=""stimuli-image"">
              </div>

              <div class=""button-spacing""></div>
            </div>

            <div style=""flex-shrink: 0; width: 180px; height: 250px; display: flex; align-items: center; justify-content: center;"">
            <img src=""interlocutor/teen_male_side.png"" style=""width: 100%; height: 100%; object-fit: contain;"" />
            </div>
        ","1","false","Rimrul","Rim","[""Rimrik"",""Rimrul""]","rul","male","side","false","false","true","","","",""
"","","","","","html-keyboard-response","26","267259","0.0-18.0","view","short","There are 2 types of names and they each type has the same ending","","null","<div style=""font-size: 48px;"">+</div>","null","","","","","","","","true","","","","","",""
"","","","","","html-button-response","27","274996","0.0-19.0-0.0","view","short","There are 2 types of names and they each type has the same ending","","7736","
          <style>
            .quote-box {
              border: 2px solid #ccc;
              padding: 16px;
              margin: 20px auto;
              border-radius: 8px;
              background-color: #ffffff;
              text-align: center;
            }
            .stimuli-image {
              display: block;
              margin: 10px auto;
              max-height: 150px;
            }
            .button-spacing {
              margin-top: 30px;
            }
          </style>

          <div style=""display: flex; align-items: center;"">
            <div style=""flex: 1; padding-right: 20px;"">
              <div class=""quote-box"">
                <p>This is called <strong>Cov</strong>.</p>
                <img src=""stimuli/penguin.png"" class=""stimuli-image"">
              </div>

              <p style=""text-align: center;"">What is this called?</p>

              <div class=""quote-box"">
                <img src=""stimuli/penguin_large.png"" class=""stimuli-image"">
              </div>

              <div class=""button-spacing""></div>
            </div>

            <div style=""flex-shrink: 0; width: 180px; height: 250px; display: flex; align-items: center; justify-content: center;"">
            <img src=""interlocutor/child_female.png"" style=""width: 100%; height: 100%; object-fit: contain;"" />
            </div>
        ","0","false","Covrik","Cov","[""Covrik"",""Covrul""]","rik","female","front","false","false","true","","","",""
"","","","","","html-keyboard-response","28","275507","0.0-20.0","view","short","There are 2 types of names and they each type has the same ending","","null","<div style=""font-size: 48px;"">+</div>","null","","","","","","","","true","","","","","",""
"","","","","","html-button-response","29","280444","0.0-21.0-0.0","view","short","There are 2 types of names and they each type has the same ending","","4935","
          <style>
            .quote-box {
              border: 2px solid #ccc;
              padding: 16px;
              margin: 20px auto;
              border-radius: 8px;
              background-color: #ffffff;
              text-align: center;
            }
            .stimuli-image {
              display: block;
              margin: 10px auto;
              max-height: 150px;
            }
            .button-spacing {
              margin-top: 30px;
            }
          </style>

          <div style=""display: flex; align-items: center;"">
            <div style=""flex: 1; padding-right: 20px;"">
              <div class=""quote-box"">
                <p>This is called <strong>Dan</strong>.</p>
                <img src=""stimuli/bokchoy_adult_01.png"" class=""stimuli-image"">
              </div>

              <p style=""text-align: center;"">What is this called?</p>

              <div class=""quote-box"">
                <img src=""stimuli/bokchoy_child_01.png"" class=""stimuli-image"">
              </div>

              <div class=""button-spacing""></div>
            </div>

            <div style=""flex-shrink: 0; width: 180px; height: 250px; display: flex; align-items: center; justify-content: center;"">
            <img src=""interlocutor/adult_female_02_side.png"" style=""width: 100%; height: 100%; object-fit: contain;"" />
            </div>
        ","1","false","Danrul","Dan","[""Danrik"",""Danrul""]","rul","female","side","false","false","true","","","",""
"","","","","","html-keyboard-response","30","280956","0.0-22.0","view","short","There are 2 types of names and they each type has the same ending","","null","<div style=""font-size: 48px;"">+</div>","null","","","","","","","","true","","","","","",""
"","","","","","survey-text","31","292178","0.0-23.0-0.0","view","short","There are 2 types of names and they each type has the same ending","","11220","","{""Q0"":""Danrul""}","","","","","","","","","true","true","danrul","danrul","",""
"","","","","","instructions","32","313398","0.0-24.0","view","short","There are 2 types of names and they each type has the same ending","[{""page_index"":0,""viewing_time"":19142}]","19142","","","","","","","","","","","","","","","",""
"","","","","","html-button-response","33","318880","0.0-25.0-0.0","view","short","There are 2 types of names and they each type has the same ending","","5480","
          <style>
            .test-trial-container {
              display: flex;
              align-items: center;
              justify-content: space-between;
              margin: 0 auto;
              max-width: 900px;
            }
            .test-stimulus {
              flex: 1;
              text-align: center;
            }
            .stimulus-box {
              border: 2px solid #ccc;
              padding: 20px;
              border-radius: 10px;
              display: inline-block;
              background-color: #f9f9f9;
            }
            .stimulus-image {
              height: 200px;
              max-width: 200px;
              object-fit: contain;
            }
            .interlocutor-image {
              height: 250px;
            }
            .button-spacing {
              margin-top: 30px;
            }
          </style>

         <div class=""test-trial-container"" style=""display: flex; justify-content: center; gap: 40px; align-items: flex-start;"">

        
        <div class=""stimulus-box"">
        <img src=""stimuli/pitcher_adult_01.png"" class=""stimulus-image"">
        </div>

      
        <div class=""interlocutor-box"">
        <div class=""prompt-text"">What would I call this?</div>
        <div class=""button-spacing""></div>
        <img src=""interlocutor/child_male_side.png"" class=""interlocutor-image"">
        </div>

        </div>

        <div class=""button-spacing""></div>
        ","0","true","Huxrul","Hux","[""Huxrik"",""Huxrul""]","rul","male","side","","","false","","","",""
"","","","","","html-keyboard-response","34","319394","0.0-26.0","view","short","There are 2 types of names and they each type has the same ending","","null","<div style=""font-size: 48px;"">+</div>","null","","","","","","","","true","","","","","",""
"","","","","","html-button-response","35","322413","0.0-27.0-0.0","view","short","There are 2 types of names and they each type has the same ending","","3018","
          <style>
            .test-trial-container {
              display: flex;
              align-items: center;
              justify-content: space-between;
              margin: 0 auto;
              max-width: 900px;
            }
            .test-stimulus {
              flex: 1;
              text-align: center;
            }
            .stimulus-box {
              border: 2px solid #ccc;
              padding: 20px;
              border-radius: 10px;
              display: inline-block;
              background-color: #f9f9f9;
            }
            .stimulus-image {
              height: 200px;
              max-width: 200px;
              object-fit: contain;
            }
            .interlocutor-image {
              height: 250px;
            }
            .button-spacing {
              margin-top: 30px;
            }
          </style>

         <div class=""test-trial-container"" style=""display: flex; justify-content: center; gap: 40px; align-items: flex-start;"">

        
        <div class=""stimulus-box"">
        <img src=""stimuli/bokchoy_adult_01.png"" class=""stimulus-image"">
        </div>

      
        <div class=""interlocutor-box"">
        <div class=""prompt-text"">What would I call this?</div>
        <div class=""button-spacing""></div>
        <img src=""interlocutor/adult_male.png"" class=""interlocutor-image"">
        </div>

        </div>

        <div class=""button-spacing""></div>
        ","1","true","Danrik","Dan","[""Danrik"",""Danrul""]","rik","male","front","","","false","","","",""
"","","","","","html-keyboard-response","36","322925","0.0-28.0","view","short","There are 2 types of names and they each type has the same ending","","null","<div style=""font-size: 48px;"">+</div>","null","","","","","","","","true","","","","","",""
"","","","","","html-button-response","37","325862","0.0-29.0-0.0","view","short","There are 2 types of names and they each type has the same ending","","2936","
          <style>
            .test-trial-container {
              display: flex;
              align-items: center;
              justify-content: space-between;
              margin: 0 auto;
              max-width: 900px;
            }
            .test-stimulus {
              flex: 1;
              text-align: center;
            }
            .stimulus-box {
              border: 2px solid #ccc;
              padding: 20px;
              border-radius: 10px;
              display: inline-block;
              background-color: #f9f9f9;
            }
            .stimulus-image {
              height: 200px;
              max-width: 200px;
              object-fit: contain;
            }
            .interlocutor-image {
              height: 250px;
            }
            .button-spacing {
              margin-top: 30px;
            }
          </style>

         <div class=""test-trial-container"" style=""display: flex; justify-content: center; gap: 40px; align-items: flex-start;"">

        
        <div class=""stimulus-box"">
        <img src=""teststimuli/bird.svg"" class=""stimulus-image"">
        </div>

      
        <div class=""interlocutor-box"">
        <div class=""prompt-text"">What would I call this?</div>
        <div class=""button-spacing""></div>
        <img src=""interlocutor/child_female_02.png"" class=""interlocutor-image"">
        </div>

        </div>

        <div class=""button-spacing""></div>
        ","0","true","Telrik","Tel","[""Telrik"",""Telrul""]","rik","female","front","","","true","","","",""
"","","","","","html-keyboard-response","38","326377","0.0-30.0","view","short","There are 2 types of names and they each type has the same ending","","null","<div style=""font-size: 48px;"">+</div>","null","","","","","","","","true","","","","","",""
"","","","","","html-button-response","39","332977","0.0-31.0-0.0","view","short","There are 2 types of names and they each type has the same ending","","6599","
          <style>
            .test-trial-container {
              display: flex;
              align-items: center;
              justify-content: space-between;
              margin: 0 auto;
              max-width: 900px;
            }
            .test-stimulus {
              flex: 1;
              text-align: center;
            }
            .stimulus-box {
              border: 2px solid #ccc;
              padding: 20px;
              border-radius: 10px;
              display: inline-block;
              background-color: #f9f9f9;
            }
            .stimulus-image {
              height: 200px;
              max-width: 200px;
              object-fit: contain;
            }
            .interlocutor-image {
              height: 250px;
            }
            .button-spacing {
              margin-top: 30px;
            }
          </style>

         <div class=""test-trial-container"" style=""display: flex; justify-content: center; gap: 40px; align-items: flex-start;"">

        
        <div class=""stimulus-box"">
        <img src=""teststimuli/globe.svg"" class=""stimulus-image"">
        </div>

      
        <div class=""interlocutor-box"">
        <div class=""prompt-text"">What would I call this?</div>
        <div class=""button-spacing""></div>
        <img src=""interlocutor/teen_male.png"" class=""interlocutor-image"">
        </div>

        </div>

        <div class=""button-spacing""></div>
        ","0","true","Vekrik","Vek","[""Vekrul"",""Vekrik""]","rik","male","front","","","false","","","",""
"","","","","","html-keyboard-response","40","333491","0.0-32.0","view","short","There are 2 types of names and they each type has the same ending","","null","<div style=""font-size: 48px;"">+</div>","null","","","","","","","","true","","","","","",""
"","","","","","html-button-response","41","336645","0.0-33.0-0.0","view","short","There are 2 types of names and they each type has the same ending","","3152","
          <style>
            .test-trial-container {
              display: flex;
              align-items: center;
              justify-content: space-between;
              margin: 0 auto;
              max-width: 900px;
            }
            .test-stimulus {
              flex: 1;
              text-align: center;
            }
            .stimulus-box {
              border: 2px solid #ccc;
              padding: 20px;
              border-radius: 10px;
              display: inline-block;
              background-color: #f9f9f9;
            }
            .stimulus-image {
              height: 200px;
              max-width: 200px;
              object-fit: contain;
            }
            .interlocutor-image {
              height: 250px;
            }
            .button-spacing {
              margin-top: 30px;
            }
          </style>

         <div class=""test-trial-container"" style=""display: flex; justify-content: center; gap: 40px; align-items: flex-start;"">

        
        <div class=""stimulus-box"">
        <img src=""stimuli/gate_adult_01.png"" class=""stimulus-image"">
        </div>

      
        <div class=""interlocutor-box"">
        <div class=""prompt-text"">What would I call this?</div>
        <div class=""button-spacing""></div>
        <img src=""interlocutor/elder_female.png"" class=""interlocutor-image"">
        </div>

        </div>

        <div class=""button-spacing""></div>
        ","0","true","Yorrik","Yor","[""Yorrik"",""Yorrul""]","rik","female","front","","","true","","","",""
"","","","","","html-keyboard-response","42","337157","0.0-34.0","view","short","There are 2 types of names and they each type has the same ending","","null","<div style=""font-size: 48px;"">+</div>","null","","","","","","","","true","","","","","",""
"","","","","","html-button-response","43","340510","0.0-35.0-0.0","view","short","There are 2 types of names and they each type has the same ending","","3353","
          <style>
            .test-trial-container {
              display: flex;
              align-items: center;
              justify-content: space-between;
              margin: 0 auto;
              max-width: 900px;
            }
            .test-stimulus {
              flex: 1;
              text-align: center;
            }
            .stimulus-box {
              border: 2px solid #ccc;
              padding: 20px;
              border-radius: 10px;
              display: inline-block;
              background-color: #f9f9f9;
            }
            .stimulus-image {
              height: 200px;
              max-width: 200px;
              object-fit: contain;
            }
            .interlocutor-image {
              height: 250px;
            }
            .button-spacing {
              margin-top: 30px;
            }
          </style>

         <div class=""test-trial-container"" style=""display: flex; justify-content: center; gap: 40px; align-items: flex-start;"">

        
        <div class=""stimulus-box"">
        <img src=""teststimuli/candy.svg"" class=""stimulus-image"">
        </div>

      
        <div class=""interlocutor-box"">
        <div class=""prompt-text"">What would I call this?</div>
        <div class=""button-spacing""></div>
        <img src=""interlocutor/child_male_02.png"" class=""interlocutor-image"">
        </div>

        </div>

        <div class=""button-spacing""></div>
        ","1","true","Wibrik","Wib","[""Wibrik"",""Wibrul""]","rik","male","front","","","false","","","",""
"","","","","","html-keyboard-response","44","341022","0.0-36.0","view","short","There are 2 types of names and they each type has the same ending","","null","<div style=""font-size: 48px;"">+</div>","null","","","","","","","","true","","","","","",""
"","","","","","html-button-response","45","344775","0.0-37.0-0.0","view","short","There are 2 types of names and they each type has the same ending","","3751","
          <style>
            .test-trial-container {
              display: flex;
              align-items: center;
              justify-content: space-between;
              margin: 0 auto;
              max-width: 900px;
            }
            .test-stimulus {
              flex: 1;
              text-align: center;
            }
            .stimulus-box {
              border: 2px solid #ccc;
              padding: 20px;
              border-radius: 10px;
              display: inline-block;
              background-color: #f9f9f9;
            }
            .stimulus-image {
              height: 200px;
              max-width: 200px;
              object-fit: contain;
            }
            .interlocutor-image {
              height: 250px;
            }
            .button-spacing {
              margin-top: 30px;
            }
          </style>

         <div class=""test-trial-container"" style=""display: flex; justify-content: center; gap: 40px; align-items: flex-start;"">

        
        <div class=""stimulus-box"">
        <img src=""teststimuli/bell.svg"" class=""stimulus-image"">
        </div>

      
        <div class=""interlocutor-box"">
        <div class=""prompt-text"">What would I call this?</div>
        <div class=""button-spacing""></div>
        <img src=""interlocutor/teen_male_side.png"" class=""interlocutor-image"">
        </div>

        </div>

        <div class=""button-spacing""></div>
        ","0","true","Mozrul","Moz","[""Mozrul"",""Mozrik""]","rul","male","side","","","true","","","",""
"","","","","","html-keyboard-response","46","345288","0.0-38.0","view","short","There are 2 types of names and they each type has the same ending","","null","<div style=""font-size: 48px;"">+</div>","null","","","","","","","","true","","","","","",""
"","","","","","html-button-response","47","349074","0.0-39.0-0.0","view","short","There are 2 types of names and they each type has the same ending","","3784","
          <style>
            .test-trial-container {
              display: flex;
              align-items: center;
              justify-content: space-between;
              margin: 0 auto;
              max-width: 900px;
            }
            .test-stimulus {
              flex: 1;
              text-align: center;
            }
            .stimulus-box {
              border: 2px solid #ccc;
              padding: 20px;
              border-radius: 10px;
              display: inline-block;
              background-color: #f9f9f9;
            }
            .stimulus-image {
              height: 200px;
              max-width: 200px;
              object-fit: contain;
            }
            .interlocutor-image {
              height: 250px;
            }
            .button-spacing {
              margin-top: 30px;
            }
          </style>

         <div class=""test-trial-container"" style=""display: flex; justify-content: center; gap: 40px; align-items: flex-start;"">

        
        <div class=""stimulus-box"">
        <img src=""teststimuli/couch.svg"" class=""stimulus-image"">
        </div>

      
        <div class=""interlocutor-box"">
        <div class=""prompt-text"">What would I call this?</div>
        <div class=""button-spacing""></div>
        <img src=""interlocutor/teen_male.png"" class=""interlocutor-image"">
        </div>

        </div>

        <div class=""button-spacing""></div>
        ","1","true","Nixrik","Nix","[""Nixrul"",""Nixrik""]","rik","male","front","","","true","","","",""
"","","","","","html-keyboard-response","48","349587","0.0-40.0","view","short","There are 2 types of names and they each type has the same ending","","null","<div style=""font-size: 48px;"">+</div>","null","","","","","","","","true","","","","","",""
"","","","","","html-button-response","49","353873","0.0-41.0-0.0","view","short","There are 2 types of names and they each type has the same ending","","4284","
          <style>
            .test-trial-container {
              display: flex;
              align-items: center;
              justify-content: space-between;
              margin: 0 auto;
              max-width: 900px;
            }
            .test-stimulus {
              flex: 1;
              text-align: center;
            }
            .stimulus-box {
              border: 2px solid #ccc;
              padding: 20px;
              border-radius: 10px;
              display: inline-block;
              background-color: #f9f9f9;
            }
            .stimulus-image {
              height: 200px;
              max-width: 200px;
              object-fit: contain;
            }
            .interlocutor-image {
              height: 250px;
            }
            .button-spacing {
              margin-top: 30px;
            }
          </style>

         <div class=""test-trial-container"" style=""display: flex; justify-content: center; gap: 40px; align-items: flex-start;"">

        
        <div class=""stimulus-box"">
        <img src=""teststimuli/woman.svg"" class=""stimulus-image"">
        </div>

      
        <div class=""interlocutor-box"">
        <div class=""prompt-text"">What would I call this?</div>
        <div class=""button-spacing""></div>
        <img src=""interlocutor/adult_female.png"" class=""interlocutor-image"">
        </div>

        </div>

        <div class=""button-spacing""></div>
        ","0","true","Daprik","Dap","[""Daprul"",""Daprik""]","rik","female","front","","","false","","","",""
"","","","","","html-keyboard-response","50","354386","0.0-42.0","view","short","There are 2 types of names and they each type has the same ending","","null","<div style=""font-size: 48px;"">+</div>","null","","","","","","","","true","","","","","",""
"","","","","","html-button-response","51","359256","0.0-43.0-0.0","view","short","There are 2 types of names and they each type has the same ending","","4869","
          <style>
            .test-trial-container {
              display: flex;
              align-items: center;
              justify-content: space-between;
              margin: 0 auto;
              max-width: 900px;
            }
            .test-stimulus {
              flex: 1;
              text-align: center;
            }
            .stimulus-box {
              border: 2px solid #ccc;
              padding: 20px;
              border-radius: 10px;
              display: inline-block;
              background-color: #f9f9f9;
            }
            .stimulus-image {
              height: 200px;
              max-width: 200px;
              object-fit: contain;
            }
            .interlocutor-image {
              height: 250px;
            }
            .button-spacing {
              margin-top: 30px;
            }
          </style>

         <div class=""test-trial-container"" style=""display: flex; justify-content: center; gap: 40px; align-items: flex-start;"">

        
        <div class=""stimulus-box"">
        <img src=""teststimuli/plane.svg"" class=""stimulus-image"">
        </div>

      
        <div class=""interlocutor-box"">
        <div class=""prompt-text"">What would I call this?</div>
        <div class=""button-spacing""></div>
        <img src=""interlocutor/elder_female_side.png"" class=""interlocutor-image"">
        </div>

        </div>

        <div class=""button-spacing""></div>
        ","1","true","Meyrul","Mey","[""Meyrul"",""Meyrik""]","rul","female","side","","","false","","","",""
"","","","","","html-keyboard-response","52","359768","0.0-44.0","view","short","There are 2 types of names and they each type has the same ending","","null","<div style=""font-size: 48px;"">+</div>","null","","","","","","","","true","","","","","",""
"","","","","","html-button-response","53","365422","0.0-45.0-0.0","view","short","There are 2 types of names and they each type has the same ending","","5653","<p><strong>Attention Check</strong></p><p>Click the button labeled ""Right"".</p>","1","","","","","","","","","","true","","","attention-check","1"
"","","","","","html-button-response","54","373036","0.0-46.0-0.0","view","short","There are 2 types of names and they each type has the same ending","","7613","
          <style>
            .test-trial-container {
              display: flex;
              align-items: center;
              justify-content: space-between;
              margin: 0 auto;
              max-width: 900px;
            }
            .test-stimulus {
              flex: 1;
              text-align: center;
            }
            .stimulus-box {
              border: 2px solid #ccc;
              padding: 20px;
              border-radius: 10px;
              display: inline-block;
              background-color: #f9f9f9;
            }
            .stimulus-image {
              height: 200px;
              max-width: 200px;
              object-fit: contain;
            }
            .interlocutor-image {
              height: 250px;
            }
            .button-spacing {
              margin-top: 30px;
            }
          </style>

         <div class=""test-trial-container"" style=""display: flex; justify-content: center; gap: 40px; align-items: flex-start;"">

        
        <div class=""stimulus-box"">
        <img src=""teststimuli/corn.svg"" class=""stimulus-image"">
        </div>

      
        <div class=""interlocutor-box"">
        <div class=""prompt-text"">What would I call this?</div>
        <div class=""button-spacing""></div>
        <img src=""interlocutor/child_female_02_side.png"" class=""interlocutor-image"">
        </div>

        </div>

        <div class=""button-spacing""></div>
        ","0","true","Lumrul","Lum","[""Lumrul"",""Lumrik""]","rul","female","side","","","true","","","",""
"","","","","","html-keyboard-response","55","373549","0.0-47.0","view","short","There are 2 types of names and they each type has the same ending","","null","<div style=""font-size: 48px;"">+</div>","null","","","","","","","","true","","","","","",""
"","","","","","html-button-response","56","377935","0.0-48.0-0.0","view","short","There are 2 types of names and they each type has the same ending","","4385","
          <style>
            .test-trial-container {
              display: flex;
              align-items: center;
              justify-content: space-between;
              margin: 0 auto;
              max-width: 900px;
            }
            .test-stimulus {
              flex: 1;
              text-align: center;
            }
            .stimulus-box {
              border: 2px solid #ccc;
              padding: 20px;
              border-radius: 10px;
              display: inline-block;
              background-color: #f9f9f9;
            }
            .stimulus-image {
              height: 200px;
              max-width: 200px;
              object-fit: contain;
            }
            .interlocutor-image {
              height: 250px;
            }
            .button-spacing {
              margin-top: 30px;
            }
          </style>

         <div class=""test-trial-container"" style=""display: flex; justify-content: center; gap: 40px; align-items: flex-start;"">

        
        <div class=""stimulus-box"">
        <img src=""stimuli/bear_adult_male_01.png"" class=""stimulus-image"">
        </div>

      
        <div class=""interlocutor-box"">
        <div class=""prompt-text"">What would I call this?</div>
        <div class=""button-spacing""></div>
        <img src=""interlocutor/adult_female_side.png"" class=""interlocutor-image"">
        </div>

        </div>

        <div class=""button-spacing""></div>
        ","0","true","Fobrul","Fob","[""Fobrul"",""Fobrik""]","rul","female","side","","","true","","","",""
"","","","","","html-keyboard-response","57","378449","0.0-49.0","view","short","There are 2 types of names and they each type has the same ending","","null","<div style=""font-size: 48px;"">+</div>","null","","","","","","","","true","","","","","",""
"","","","","","html-button-response","58","382019","0.0-50.0-0.0","view","short","There are 2 types of names and they each type has the same ending","","3569","
          <style>
            .test-trial-container {
              display: flex;
              align-items: center;
              justify-content: space-between;
              margin: 0 auto;
              max-width: 900px;
            }
            .test-stimulus {
              flex: 1;
              text-align: center;
            }
            .stimulus-box {
              border: 2px solid #ccc;
              padding: 20px;
              border-radius: 10px;
              display: inline-block;
              background-color: #f9f9f9;
            }
            .stimulus-image {
              height: 200px;
              max-width: 200px;
              object-fit: contain;
            }
            .interlocutor-image {
              height: 250px;
            }
            .button-spacing {
              margin-top: 30px;
            }
          </style>

         <div class=""test-trial-container"" style=""display: flex; justify-content: center; gap: 40px; align-items: flex-start;"">

        
        <div class=""stimulus-box"">
        <img src=""teststimuli/cherry.svg"" class=""stimulus-image"">
        </div>

      
        <div class=""interlocutor-box"">
        <div class=""prompt-text"">What would I call this?</div>
        <div class=""button-spacing""></div>
        <img src=""interlocutor/child_female_03.png"" class=""interlocutor-image"">
        </div>

        </div>

        <div class=""button-spacing""></div>
        ","1","true","Fumrik","Fum","[""Fumrul"",""Fumrik""]","rik","female","front","","","true","","","",""
"","","","","","html-keyboard-response","59","382530","0.0-51.0","view","short","There are 2 types of names and they each type has the same ending","","null","<div style=""font-size: 48px;"">+</div>","null","","","","","","","","true","","","","","",""
"","","","","","html-button-response","60","385669","0.0-52.0-0.0","view","short","There are 2 types of names and they each type has the same ending","","3137","
          <style>
            .test-trial-container {
              display: flex;
              align-items: center;
              justify-content: space-between;
              margin: 0 auto;
              max-width: 900px;
            }
            .test-stimulus {
              flex: 1;
              text-align: center;
            }
            .stimulus-box {
              border: 2px solid #ccc;
              padding: 20px;
              border-radius: 10px;
              display: inline-block;
              background-color: #f9f9f9;
            }
            .stimulus-image {
              height: 200px;
              max-width: 200px;
              object-fit: contain;
            }
            .interlocutor-image {
              height: 250px;
            }
            .button-spacing {
              margin-top: 30px;
            }
          </style>

         <div class=""test-trial-container"" style=""display: flex; justify-content: center; gap: 40px; align-items: flex-start;"">

        
        <div class=""stimulus-box"">
        <img src=""teststimuli/tree.svg"" class=""stimulus-image"">
        </div>

      
        <div class=""interlocutor-box"">
        <div class=""prompt-text"">What would I call this?</div>
        <div class=""button-spacing""></div>
        <img src=""interlocutor/teen_male.png"" class=""interlocutor-image"">
        </div>

        </div>

        <div class=""button-spacing""></div>
        ","0","true","Jorrik","Jor","[""Jorrik"",""Jorrul""]","rik","male","front","","","true","","","",""
"","","","","","html-keyboard-response","61","386182","0.0-53.0","view","short","There are 2 types of names and they each type has the same ending","","null","<div style=""font-size: 48px;"">+</div>","null","","","","","","","","true","","","","","",""
"","","","","","html-button-response","62","390216","0.0-54.0-0.0","view","short","There are 2 types of names and they each type has the same ending","","4034","
          <style>
            .test-trial-container {
              display: flex;
              align-items: center;
              justify-content: space-between;
              margin: 0 auto;
              max-width: 900px;
            }
            .test-stimulus {
              flex: 1;
              text-align: center;
            }
            .stimulus-box {
              border: 2px solid #ccc;
              padding: 20px;
              border-radius: 10px;
              display: inline-block;
              background-color: #f9f9f9;
            }
            .stimulus-image {
              height: 200px;
              max-width: 200px;
              object-fit: contain;
            }
            .interlocutor-image {
              height: 250px;
            }
            .button-spacing {
              margin-top: 30px;
            }
          </style>

         <div class=""test-trial-container"" style=""display: flex; justify-content: center; gap: 40px; align-items: flex-start;"">

        
        <div class=""stimulus-box"">
        <img src=""teststimuli/man.svg"" class=""stimulus-image"">
        </div>

      
        <div class=""interlocutor-box"">
        <div class=""prompt-text"">What would I call this?</div>
        <div class=""button-spacing""></div>
        <img src=""interlocutor/child_male_02_side.png"" class=""interlocutor-image"">
        </div>

        </div>

        <div class=""button-spacing""></div>
        ","0","true","Tyrrul","Tyr","[""Tyrrul"",""Tyrrik""]","rul","male","side","","","true","","","",""
"","","","","","html-keyboard-response","63","390729","0.0-55.0","view","short","There are 2 types of names and they each type has the same ending","","null","<div style=""font-size: 48px;"">+</div>","null","","","","","","","","true","","","","","",""
"","","","","","html-button-response","64","393433","0.0-56.0-0.0","view","short","There are 2 types of names and they each type has the same ending","","2702","
          <style>
            .test-trial-container {
              display: flex;
              align-items: center;
              justify-content: space-between;
              margin: 0 auto;
              max-width: 900px;
            }
            .test-stimulus {
              flex: 1;
              text-align: center;
            }
            .stimulus-box {
              border: 2px solid #ccc;
              padding: 20px;
              border-radius: 10px;
              display: inline-block;
              background-color: #f9f9f9;
            }
            .stimulus-image {
              height: 200px;
              max-width: 200px;
              object-fit: contain;
            }
            .interlocutor-image {
              height: 250px;
            }
            .button-spacing {
              margin-top: 30px;
            }
          </style>

         <div class=""test-trial-container"" style=""display: flex; justify-content: center; gap: 40px; align-items: flex-start;"">

        
        <div class=""stimulus-box"">
        <img src=""teststimuli/elder.svg"" class=""stimulus-image"">
        </div>

      
        <div class=""interlocutor-box"">
        <div class=""prompt-text"">What would I call this?</div>
        <div class=""button-spacing""></div>
        <img src=""interlocutor/elder_female_side.png"" class=""interlocutor-image"">
        </div>

        </div>

        <div class=""button-spacing""></div>
        ","1","true","Gynrul","Gyn","[""Gynrik"",""Gynrul""]","rul","female","side","","","true","","","",""
"","","","","","html-keyboard-response","65","393945","0.0-57.0","view","short","There are 2 types of names and they each type has the same ending","","null","<div style=""font-size: 48px;"">+</div>","null","","","","","","","","true","","","","","",""
"","","","","","html-button-response","66","396366","0.0-58.0-0.0","view","short","There are 2 types of names and they each type has the same ending","","2419","
          <style>
            .test-trial-container {
              display: flex;
              align-items: center;
              justify-content: space-between;
              margin: 0 auto;
              max-width: 900px;
            }
            .test-stimulus {
              flex: 1;
              text-align: center;
            }
            .stimulus-box {
              border: 2px solid #ccc;
              padding: 20px;
              border-radius: 10px;
              display: inline-block;
              background-color: #f9f9f9;
            }
            .stimulus-image {
              height: 200px;
              max-width: 200px;
              object-fit: contain;
            }
            .interlocutor-image {
              height: 250px;
            }
            .button-spacing {
              margin-top: 30px;
            }
          </style>

         <div class=""test-trial-container"" style=""display: flex; justify-content: center; gap: 40px; align-items: flex-start;"">

        
        <div class=""stimulus-box"">
        <img src=""teststimuli/toothbrush.svg"" class=""stimulus-image"">
        </div>

      
        <div class=""interlocutor-box"">
        <div class=""prompt-text"">What would I call this?</div>
        <div class=""button-spacing""></div>
        <img src=""interlocutor/adult_male_02_side.png"" class=""interlocutor-image"">
        </div>

        </div>

        <div class=""button-spacing""></div>
        ","1","true","Zanrul","Zan","[""Zanrul"",""Zanrik""]","rul","male","side","","","false","","","",""
"","","","","","html-keyboard-response","67","396877","0.0-59.0","view","short","There are 2 types of names and they each type has the same ending","","null","<div style=""font-size: 48px;"">+</div>","null","","","","","","","","true","","","","","",""
"","","","","","html-button-response","68","399449","0.0-60.0-0.0","view","short","There are 2 types of names and they each type has the same ending","","2571","
          <style>
            .test-trial-container {
              display: flex;
              align-items: center;
              justify-content: space-between;
              margin: 0 auto;
              max-width: 900px;
            }
            .test-stimulus {
              flex: 1;
              text-align: center;
            }
            .stimulus-box {
              border: 2px solid #ccc;
              padding: 20px;
              border-radius: 10px;
              display: inline-block;
              background-color: #f9f9f9;
            }
            .stimulus-image {
              height: 200px;
              max-width: 200px;
              object-fit: contain;
            }
            .interlocutor-image {
              height: 250px;
            }
            .button-spacing {
              margin-top: 30px;
            }
          </style>

         <div class=""test-trial-container"" style=""display: flex; justify-content: center; gap: 40px; align-items: flex-start;"">

        
        <div class=""stimulus-box"">
        <img src=""teststimuli/horse.svg"" class=""stimulus-image"">
        </div>

      
        <div class=""interlocutor-box"">
        <div class=""prompt-text"">What would I call this?</div>
        <div class=""button-spacing""></div>
        <img src=""interlocutor/child_female_03.png"" class=""interlocutor-image"">
        </div>

        </div>

        <div class=""button-spacing""></div>
        ","0","true","Bewrik","Bew","[""Bewrik"",""Bewrul""]","rik","female","front","","","true","","","",""
"","","","","","html-keyboard-response","69","399962","0.0-61.0","view","short","There are 2 types of names and they each type has the same ending","","null","<div style=""font-size: 48px;"">+</div>","null","","","","","","","","true","","","","","",""
"","","","","","html-button-response","70","403266","0.0-62.0-0.0","view","short","There are 2 types of names and they each type has the same ending","","3302","
          <style>
            .test-trial-container {
              display: flex;
              align-items: center;
              justify-content: space-between;
              margin: 0 auto;
              max-width: 900px;
            }
            .test-stimulus {
              flex: 1;
              text-align: center;
            }
            .stimulus-box {
              border: 2px solid #ccc;
              padding: 20px;
              border-radius: 10px;
              display: inline-block;
              background-color: #f9f9f9;
            }
            .stimulus-image {
              height: 200px;
              max-width: 200px;
              object-fit: contain;
            }
            .interlocutor-image {
              height: 250px;
            }
            .button-spacing {
              margin-top: 30px;
            }
          </style>

         <div class=""test-trial-container"" style=""display: flex; justify-content: center; gap: 40px; align-items: flex-start;"">

        
        <div class=""stimulus-box"">
        <img src=""teststimuli/chair.svg"" class=""stimulus-image"">
        </div>

      
        <div class=""interlocutor-box"">
        <div class=""prompt-text"">What would I call this?</div>
        <div class=""button-spacing""></div>
        <img src=""interlocutor/teen_male_side.png"" class=""interlocutor-image"">
        </div>

        </div>

        <div class=""button-spacing""></div>
        ","1","true","Yanrul","Yan","[""Yanrul"",""Yanrik""]","rul","male","side","","","false","","","",""
"","","","","","html-keyboard-response","71","403776","0.0-63.0","view","short","There are 2 types of names and they each type has the same ending","","null","<div style=""font-size: 48px;"">+</div>","null","","","","","","","","true","","","","","",""
"","","","","","html-button-response","72","406680","0.0-64.0-0.0","view","short","There are 2 types of names and they each type has the same ending","","2903","
          <style>
            .test-trial-container {
              display: flex;
              align-items: center;
              justify-content: space-between;
              margin: 0 auto;
              max-width: 900px;
            }
            .test-stimulus {
              flex: 1;
              text-align: center;
            }
            .stimulus-box {
              border: 2px solid #ccc;
              padding: 20px;
              border-radius: 10px;
              display: inline-block;
              background-color: #f9f9f9;
            }
            .stimulus-image {
              height: 200px;
              max-width: 200px;
              object-fit: contain;
            }
            .interlocutor-image {
              height: 250px;
            }
            .button-spacing {
              margin-top: 30px;
            }
          </style>

         <div class=""test-trial-container"" style=""display: flex; justify-content: center; gap: 40px; align-items: flex-start;"">

        
        <div class=""stimulus-box"">
        <img src=""teststimuli/car.svg"" class=""stimulus-image"">
        </div>

      
        <div class=""interlocutor-box"">
        <div class=""prompt-text"">What would I call this?</div>
        <div class=""button-spacing""></div>
        <img src=""interlocutor/adult_female_02.png"" class=""interlocutor-image"">
        </div>

        </div>

        <div class=""button-spacing""></div>
        ","0","true","Ronrik","Ron","[""Ronrul"",""Ronrik""]","rik","female","front","","","false","","","",""
"","","","","","html-keyboard-response","73","407192","0.0-65.0","view","short","There are 2 types of names and they each type has the same ending","","null","<div style=""font-size: 48px;"">+</div>","null","","","","","","","","true","","","","","",""
"","","","","","html-button-response","74","411712","0.0-66.0-0.0","view","short","There are 2 types of names and they each type has the same ending","","4519","<p><strong>Attention Check</strong></p><p>Click the button labeled ""Right"".</p>","1","","","","","","","","","","true","","","attention-check","1"
"","","","","","html-button-response","75","413511","0.0-67.0-0.0","view","short","There are 2 types of names and they each type has the same ending","","1798","
          <style>
            .test-trial-container {
              display: flex;
              align-items: center;
              justify-content: space-between;
              margin: 0 auto;
              max-width: 900px;
            }
            .test-stimulus {
              flex: 1;
              text-align: center;
            }
            .stimulus-box {
              border: 2px solid #ccc;
              padding: 20px;
              border-radius: 10px;
              display: inline-block;
              background-color: #f9f9f9;
            }
            .stimulus-image {
              height: 200px;
              max-width: 200px;
              object-fit: contain;
            }
            .interlocutor-image {
              height: 250px;
            }
            .button-spacing {
              margin-top: 30px;
            }
          </style>

         <div class=""test-trial-container"" style=""display: flex; justify-content: center; gap: 40px; align-items: flex-start;"">

        
        <div class=""stimulus-box"">
        <img src=""teststimuli/bag.svg"" class=""stimulus-image"">
        </div>

      
        <div class=""interlocutor-box"">
        <div class=""prompt-text"">What would I call this?</div>
        <div class=""button-spacing""></div>
        <img src=""interlocutor/elder_male_side.png"" class=""interlocutor-image"">
        </div>

        </div>

        <div class=""button-spacing""></div>
        ","0","true","Gulrul","Gul","[""Gulrik"",""Gulrul""]","rul","male","side","","","false","","","",""
"","","","","","html-keyboard-response","76","414026","0.0-68.0","view","short","There are 2 types of names and they each type has the same ending","","null","<div style=""font-size: 48px;"">+</div>","null","","","","","","","","true","","","","","",""
"","","","","","html-button-response","77","417862","0.0-69.0-0.0","view","short","There are 2 types of names and they each type has the same ending","","3835","
          <style>
            .test-trial-container {
              display: flex;
              align-items: center;
              justify-content: space-between;
              margin: 0 auto;
              max-width: 900px;
            }
            .test-stimulus {
              flex: 1;
              text-align: center;
            }
            .stimulus-box {
              border: 2px solid #ccc;
              padding: 20px;
              border-radius: 10px;
              display: inline-block;
              background-color: #f9f9f9;
            }
            .stimulus-image {
              height: 200px;
              max-width: 200px;
              object-fit: contain;
            }
            .interlocutor-image {
              height: 250px;
            }
            .button-spacing {
              margin-top: 30px;
            }
          </style>

         <div class=""test-trial-container"" style=""display: flex; justify-content: center; gap: 40px; align-items: flex-start;"">

        
        <div class=""stimulus-box"">
        <img src=""teststimuli/school.svg"" class=""stimulus-image"">
        </div>

      
        <div class=""interlocutor-box"">
        <div class=""prompt-text"">What would I call this?</div>
        <div class=""button-spacing""></div>
        <img src=""interlocutor/adult_female_02_side.png"" class=""interlocutor-image"">
        </div>

        </div>

        <div class=""button-spacing""></div>
        ","1","true","Rivrul","Riv","[""Rivrul"",""Rivrik""]","rul","female","side","","","false","","","",""
"","","","","","html-keyboard-response","78","418374","0.0-70.0","view","short","There are 2 types of names and they each type has the same ending","","null","<div style=""font-size: 48px;"">+</div>","null","","","","","","","","true","","","","","",""
"","","","","","html-button-response","79","423158","0.0-71.0-0.0","view","short","There are 2 types of names and they each type has the same ending","","4783","
          <style>
            .test-trial-container {
              display: flex;
              align-items: center;
              justify-content: space-between;
              margin: 0 auto;
              max-width: 900px;
            }
            .test-stimulus {
              flex: 1;
              text-align: center;
            }
            .stimulus-box {
              border: 2px solid #ccc;
              padding: 20px;
              border-radius: 10px;
              display: inline-block;
              background-color: #f9f9f9;
            }
            .stimulus-image {
              height: 200px;
              max-width: 200px;
              object-fit: contain;
            }
            .interlocutor-image {
              height: 250px;
            }
            .button-spacing {
              margin-top: 30px;
            }
          </style>

         <div class=""test-trial-container"" style=""display: flex; justify-content: center; gap: 40px; align-items: flex-start;"">

        
        <div class=""stimulus-box"">
        <img src=""teststimuli/fish.svg"" class=""stimulus-image"">
        </div>

      
        <div class=""interlocutor-box"">
        <div class=""prompt-text"">What would I call this?</div>
        <div class=""button-spacing""></div>
        <img src=""interlocutor/child_female_03_side.png"" class=""interlocutor-image"">
        </div>

        </div>

        <div class=""button-spacing""></div>
        ","0","true","Selrul","Sel","[""Selrul"",""Selrik""]","rul","female","side","","","true","","","",""
"","","","","","html-keyboard-response","80","423674","0.0-72.0","view","short","There are 2 types of names and they each type has the same ending","","null","<div style=""font-size: 48px;"">+</div>","null","","","","","","","","true","","","","","",""
"","","","","","html-button-response","81","427675","0.0-73.0-0.0","view","short","There are 2 types of names and they each type has the same ending","","4000","
          <style>
            .test-trial-container {
              display: flex;
              align-items: center;
              justify-content: space-between;
              margin: 0 auto;
              max-width: 900px;
            }
            .test-stimulus {
              flex: 1;
              text-align: center;
            }
            .stimulus-box {
              border: 2px solid #ccc;
              padding: 20px;
              border-radius: 10px;
              display: inline-block;
              background-color: #f9f9f9;
            }
            .stimulus-image {
              height: 200px;
              max-width: 200px;
              object-fit: contain;
            }
            .interlocutor-image {
              height: 250px;
            }
            .button-spacing {
              margin-top: 30px;
            }
          </style>

         <div class=""test-trial-container"" style=""display: flex; justify-content: center; gap: 40px; align-items: flex-start;"">

        
        <div class=""stimulus-box"">
        <img src=""teststimuli/sandwich.svg"" class=""stimulus-image"">
        </div>

      
        <div class=""interlocutor-box"">
        <div class=""prompt-text"">What would I call this?</div>
        <div class=""button-spacing""></div>
        <img src=""interlocutor/child_male_02.png"" class=""interlocutor-image"">
        </div>

        </div>

        <div class=""button-spacing""></div>
        ","0","true","Nixrik","Nix","[""Nixrul"",""Nixrik""]","rik","male","front","","","false","","","",""
"","","","","","html-keyboard-response","82","428189","0.0-74.0","view","short","There are 2 types of names and they each type has the same ending","","null","<div style=""font-size: 48px;"">+</div>","null","","","","","","","","true","","","","","",""
"","","","","","survey-text","83","587881","0.0-75.0","view","short","There are 2 types of names and they each type has the same ending","","159667","","{""Q0"":""There are 2 types of names and they each type has the same ending""}","","","","","","","","","","","","","",""
