"success","timeout","failed_images","failed_audio","failed_video","trial_type","trial_index","time_elapsed","internal_node_id","main_cue","condition","cue_guess","view_history","rt","stimulus","response","test_trial","correct_choice","prompt_label","choices","suffix","gender","view","is_fixation","attention_check","correct","typed_response","expected_label","task","correct_response"
"true","false","[]","[]","[]","preload","0","13","0.0-0.0","view","long","none","","","","","","","","","","","","","","","","","",""
"","","","","","instructions","1","27688","0.0-1.0","view","long","none","[{""page_index"":0,""viewing_time"":27674}]","27674","","","","","","","","","","","","","","","",""
"","","","","","instructions","2","57253","0.0-2.0","view","long","none","[{""page_index"":0,""viewing_time"":29563}]","29564","","","","","","","","","","","","","","","",""
"","","","","","html-button-response","3","73836","0.0-3.0-0.0","view","long","none","","16580","
          <style>
            .quote-box {
              border: 2px solid #ccc;
              padding: 16px;
              margin: 20px auto;
              border-radius: 8px;
              background-color: #ffffff;
              text-align: center;
            }
            .stimuli-image {
              display: block;
              margin: 10px auto;
              max-height: 150px;
            }
            .button-spacing {
              margin-top: 30px;
            }
          </style>

          <div style=""display: flex; align-items: center;"">
            <div style=""flex: 1; padding-right: 20px;"">
              <div class=""quote-box"">
                <p>This is called <strong>Lom</strong>.</p>
                <img src=""stimuli/bunny.jpg"" class=""stimuli-image"">
              </div>

              <p style=""text-align: center;"">What is this called?</p>

              <div class=""quote-box"">
                <img src=""stimuli/rabbit.jpg"" class=""stimuli-image"">
              </div>

              <div class=""button-spacing""></div>
            </div>

            <div style=""flex-shrink: 0; width: 180px; height: 250px; display: flex; align-items: center; justify-content: center;"">
            <img src=""interlocutor/adult_male_02_side.png"" style=""width: 100%; height: 100%; object-fit: contain;"" />
            </div>
        ","0","false","Lomrul","Lom","[""Lomrik"",""Lomrul""]","rul","male","side","false","false","false","","","",""
"","","","","","html-keyboard-response","4","74839","0.0-3.0-1.0-0.0","view","long","none","","null","<p style='color:red; font-size: 24px;'>Incorrect! Please try again.</p>","null","","","","","","","","","","","","","",""
"","","","","","html-button-response","5","79270","0.0-3.1-0.1","view","long","none","","4429","
          <style>
            .quote-box {
              border: 2px solid #ccc;
              padding: 16px;
              margin: 20px auto;
              border-radius: 8px;
              background-color: #ffffff;
              text-align: center;
            }
            .stimuli-image {
              display: block;
              margin: 10px auto;
              max-height: 150px;
            }
            .button-spacing {
              margin-top: 30px;
            }
          </style>

          <div style=""display: flex; align-items: center;"">
            <div style=""flex: 1; padding-right: 20px;"">
              <div class=""quote-box"">
                <p>This is called <strong>Lom</strong>.</p>
                <img src=""stimuli/bunny.jpg"" class=""stimuli-image"">
              </div>

              <p style=""text-align: center;"">What is this called?</p>

              <div class=""quote-box"">
                <img src=""stimuli/rabbit.jpg"" class=""stimuli-image"">
              </div>

              <div class=""button-spacing""></div>
            </div>

            <div style=""flex-shrink: 0; width: 180px; height: 250px; display: flex; align-items: center; justify-content: center;"">
            <img src=""interlocutor/adult_male_02_side.png"" style=""width: 100%; height: 100%; object-fit: contain;"" />
            </div>
        ","1","false","Lomrul","Lom","[""Lomrik"",""Lomrul""]","rul","male","side","false","false","true","","","",""
"","","","","","html-keyboard-response","6","79773","0.0-4.0","view","long","none","","null","<div style=""font-size: 48px;"">+</div>","null","","","","","","","","true","","","","","",""
"","","","","","html-button-response","7","85453","0.0-5.0-0.0","view","long","none","","5678","
          <style>
            .quote-box {
              border: 2px solid #ccc;
              padding: 16px;
              margin: 20px auto;
              border-radius: 8px;
              background-color: #ffffff;
              text-align: center;
            }
            .stimuli-image {
              display: block;
              margin: 10px auto;
              max-height: 150px;
            }
            .button-spacing {
              margin-top: 30px;
            }
          </style>

          <div style=""display: flex; align-items: center;"">
            <div style=""flex: 1; padding-right: 20px;"">
              <div class=""quote-box"">
                <p>This is called <strong>Rim</strong>.</p>
                <img src=""stimuli/light_small.jpeg"" class=""stimuli-image"">
              </div>

              <p style=""text-align: center;"">What is this called?</p>

              <div class=""quote-box"">
                <img src=""stimuli/light_large.png"" class=""stimuli-image"">
              </div>

              <div class=""button-spacing""></div>
            </div>

            <div style=""flex-shrink: 0; width: 180px; height: 250px; display: flex; align-items: center; justify-content: center;"">
            <img src=""interlocutor/child_female.png"" style=""width: 100%; height: 100%; object-fit: contain;"" />
            </div>
        ","0","false","Rimrik","Rim","[""Rimrik"",""Rimrul""]","rik","female","front","false","false","true","","","",""
"","","","","","html-keyboard-response","8","85956","0.0-6.0","view","long","none","","null","<div style=""font-size: 48px;"">+</div>","null","","","","","","","","true","","","","","",""
"","","","","","html-button-response","9","89587","0.0-7.0-0.0","view","long","none","","3629","
          <style>
            .quote-box {
              border: 2px solid #ccc;
              padding: 16px;
              margin: 20px auto;
              border-radius: 8px;
              background-color: #ffffff;
              text-align: center;
            }
            .stimuli-image {
              display: block;
              margin: 10px auto;
              max-height: 150px;
            }
            .button-spacing {
              margin-top: 30px;
            }
          </style>

          <div style=""display: flex; align-items: center;"">
            <div style=""flex: 1; padding-right: 20px;"">
              <div class=""quote-box"">
                <p>This is called <strong>Cov</strong>.</p>
                <img src=""stimuli/penguin.png"" class=""stimuli-image"">
              </div>

              <p style=""text-align: center;"">What is this called?</p>

              <div class=""quote-box"">
                <img src=""stimuli/penguin_large.png"" class=""stimuli-image"">
              </div>

              <div class=""button-spacing""></div>
            </div>

            <div style=""flex-shrink: 0; width: 180px; height: 250px; display: flex; align-items: center; justify-content: center;"">
            <img src=""interlocutor/adult_male.png"" style=""width: 100%; height: 100%; object-fit: contain;"" />
            </div>
        ","1","false","Covrik","Cov","[""Covrik"",""Covrul""]","rik","male","front","false","false","false","","","",""
"","","","","","html-keyboard-response","10","90589","0.0-7.0-1.0-0.0","view","long","none","","null","<p style='color:red; font-size: 24px;'>Incorrect! Please try again.</p>","null","","","","","","","","","","","","","",""
"","","","","","html-button-response","11","102420","0.0-7.1-0.1","view","long","none","","11828","
          <style>
            .quote-box {
              border: 2px solid #ccc;
              padding: 16px;
              margin: 20px auto;
              border-radius: 8px;
              background-color: #ffffff;
              text-align: center;
            }
            .stimuli-image {
              display: block;
              margin: 10px auto;
              max-height: 150px;
            }
            .button-spacing {
              margin-top: 30px;
            }
          </style>

          <div style=""display: flex; align-items: center;"">
            <div style=""flex: 1; padding-right: 20px;"">
              <div class=""quote-box"">
                <p>This is called <strong>Cov</strong>.</p>
                <img src=""stimuli/penguin.png"" class=""stimuli-image"">
              </div>

              <p style=""text-align: center;"">What is this called?</p>

              <div class=""quote-box"">
                <img src=""stimuli/penguin_large.png"" class=""stimuli-image"">
              </div>

              <div class=""button-spacing""></div>
            </div>

            <div style=""flex-shrink: 0; width: 180px; height: 250px; display: flex; align-items: center; justify-content: center;"">
            <img src=""interlocutor/adult_male.png"" style=""width: 100%; height: 100%; object-fit: contain;"" />
            </div>
        ","1","false","Covrik","Cov","[""Covrik"",""Covrul""]","rik","male","front","false","false","false","","","",""
"","","","","","html-keyboard-response","12","103423","0.0-7.1-1.1-0.1","view","long","none","","null","<p style='color:red; font-size: 24px;'>Incorrect! Please try again.</p>","null","","","","","","","","","","","","","",""
"","","","","","html-button-response","13","104187","0.0-7.2-0.2","view","long","none","","762","
          <style>
            .quote-box {
              border: 2px solid #ccc;
              padding: 16px;
              margin: 20px auto;
              border-radius: 8px;
              background-color: #ffffff;
              text-align: center;
            }
            .stimuli-image {
              display: block;
              margin: 10px auto;
              max-height: 150px;
            }
            .button-spacing {
              margin-top: 30px;
            }
          </style>

          <div style=""display: flex; align-items: center;"">
            <div style=""flex: 1; padding-right: 20px;"">
              <div class=""quote-box"">
                <p>This is called <strong>Cov</strong>.</p>
                <img src=""stimuli/penguin.png"" class=""stimuli-image"">
              </div>

              <p style=""text-align: center;"">What is this called?</p>

              <div class=""quote-box"">
                <img src=""stimuli/penguin_large.png"" class=""stimuli-image"">
              </div>

              <div class=""button-spacing""></div>
            </div>

            <div style=""flex-shrink: 0; width: 180px; height: 250px; display: flex; align-items: center; justify-content: center;"">
            <img src=""interlocutor/adult_male.png"" style=""width: 100%; height: 100%; object-fit: contain;"" />
            </div>
        ","0","false","Covrik","Cov","[""Covrik"",""Covrul""]","rik","male","front","false","false","true","","","",""
"","","","","","html-keyboard-response","14","104689","0.0-8.0","view","long","none","","null","<div style=""font-size: 48px;"">+</div>","null","","","","","","","","true","","","","","",""
"","","","","","survey-text","15","111420","0.0-9.0-0.0","view","long","none","","6726","","{""Q0"":""covrik""}","","","","","","","","","true","true","covrik","covrik","",""
"","","","","","html-button-response","16","119370","0.0-10.0-0.0","view","long","none","","7948","
          <style>
            .quote-box {
              border: 2px solid #ccc;
              padding: 16px;
              margin: 20px auto;
              border-radius: 8px;
              background-color: #ffffff;
              text-align: center;
            }
            .stimuli-image {
              display: block;
              margin: 10px auto;
              max-height: 150px;
            }
            .button-spacing {
              margin-top: 30px;
            }
          </style>

          <div style=""display: flex; align-items: center;"">
            <div style=""flex: 1; padding-right: 20px;"">
              <div class=""quote-box"">
                <p>This is called <strong>Han</strong>.</p>
                <img src=""stimuli/chair_adult_02.png"" class=""stimuli-image"">
              </div>

              <p style=""text-align: center;"">What is this called?</p>

              <div class=""quote-box"">
                <img src=""stimuli/chair_small.png"" class=""stimuli-image"">
              </div>

              <div class=""button-spacing""></div>
            </div>

            <div style=""flex-shrink: 0; width: 180px; height: 250px; display: flex; align-items: center; justify-content: center;"">
            <img src=""interlocutor/child_female.png"" style=""width: 100%; height: 100%; object-fit: contain;"" />
            </div>
        ","0","false","Hanrik","Han","[""Hanrik"",""Hanrul""]","rik","female","front","false","false","true","","","",""
"","","","","","html-keyboard-response","17","119872","0.0-11.0","view","long","none","","null","<div style=""font-size: 48px;"">+</div>","null","","","","","","","","true","","","","","",""
"","","","","","html-button-response","18","122253","0.0-12.0-0.0","view","long","none","","2379","
          <style>
            .quote-box {
              border: 2px solid #ccc;
              padding: 16px;
              margin: 20px auto;
              border-radius: 8px;
              background-color: #ffffff;
              text-align: center;
            }
            .stimuli-image {
              display: block;
              margin: 10px auto;
              max-height: 150px;
            }
            .button-spacing {
              margin-top: 30px;
            }
          </style>

          <div style=""display: flex; align-items: center;"">
            <div style=""flex: 1; padding-right: 20px;"">
              <div class=""quote-box"">
                <p>This is called <strong>Fek</strong>.</p>
                <img src=""stimuli/fox_adult_male_01.png"" class=""stimuli-image"">
              </div>

              <p style=""text-align: center;"">What is this called?</p>

              <div class=""quote-box"">
                <img src=""stimuli/fox_child_01.png"" class=""stimuli-image"">
              </div>

              <div class=""button-spacing""></div>
            </div>

            <div style=""flex-shrink: 0; width: 180px; height: 250px; display: flex; align-items: center; justify-content: center;"">
            <img src=""interlocutor/child_female.png"" style=""width: 100%; height: 100%; object-fit: contain;"" />
            </div>
        ","1","false","Fekrik","Fek","[""Fekrik"",""Fekrul""]","rik","female","front","false","false","false","","","",""
"","","","","","html-keyboard-response","19","123256","0.0-12.0-1.0-0.0","view","long","none","","null","<p style='color:red; font-size: 24px;'>Incorrect! Please try again.</p>","null","","","","","","","","","","","","","",""
"","","","","","html-button-response","20","123987","0.0-12.1-0.1","view","long","none","","729","
          <style>
            .quote-box {
              border: 2px solid #ccc;
              padding: 16px;
              margin: 20px auto;
              border-radius: 8px;
              background-color: #ffffff;
              text-align: center;
            }
            .stimuli-image {
              display: block;
              margin: 10px auto;
              max-height: 150px;
            }
            .button-spacing {
              margin-top: 30px;
            }
          </style>

          <div style=""display: flex; align-items: center;"">
            <div style=""flex: 1; padding-right: 20px;"">
              <div class=""quote-box"">
                <p>This is called <strong>Fek</strong>.</p>
                <img src=""stimuli/fox_adult_male_01.png"" class=""stimuli-image"">
              </div>

              <p style=""text-align: center;"">What is this called?</p>

              <div class=""quote-box"">
                <img src=""stimuli/fox_child_01.png"" class=""stimuli-image"">
              </div>

              <div class=""button-spacing""></div>
            </div>

            <div style=""flex-shrink: 0; width: 180px; height: 250px; display: flex; align-items: center; justify-content: center;"">
            <img src=""interlocutor/child_female.png"" style=""width: 100%; height: 100%; object-fit: contain;"" />
            </div>
        ","0","false","Fekrik","Fek","[""Fekrik"",""Fekrul""]","rik","female","front","false","false","true","","","",""
"","","","","","html-keyboard-response","21","124489","0.0-13.0","view","long","none","","null","<div style=""font-size: 48px;"">+</div>","null","","","","","","","","true","","","","","",""
"","","","","","html-button-response","22","126719","0.0-14.0-0.0","view","long","none","","2228","
          <style>
            .quote-box {
              border: 2px solid #ccc;
              padding: 16px;
              margin: 20px auto;
              border-radius: 8px;
              background-color: #ffffff;
              text-align: center;
            }
            .stimuli-image {
              display: block;
              margin: 10px auto;
              max-height: 150px;
            }
            .button-spacing {
              margin-top: 30px;
            }
          </style>

          <div style=""display: flex; align-items: center;"">
            <div style=""flex: 1; padding-right: 20px;"">
              <div class=""quote-box"">
                <p>This is called <strong>Nuv</strong>.</p>
                <img src=""stimuli/asteroid_small.png"" class=""stimuli-image"">
              </div>

              <p style=""text-align: center;"">What is this called?</p>

              <div class=""quote-box"">
                <img src=""stimuli/asteroid_large.jpg"" class=""stimuli-image"">
              </div>

              <div class=""button-spacing""></div>
            </div>

            <div style=""flex-shrink: 0; width: 180px; height: 250px; display: flex; align-items: center; justify-content: center;"">
            <img src=""interlocutor/adult_male_02_side.png"" style=""width: 100%; height: 100%; object-fit: contain;"" />
            </div>
        ","0","false","Nuvrul","Nuv","[""Nuvrik"",""Nuvrul""]","rul","male","side","false","false","false","","","",""
"","","","","","html-keyboard-response","23","127722","0.0-14.0-1.0-0.0","view","long","none","","null","<p style='color:red; font-size: 24px;'>Incorrect! Please try again.</p>","null","","","","","","","","","","","","","",""
"","","","","","html-button-response","24","128987","0.0-14.1-0.1","view","long","none","","1263","
          <style>
            .quote-box {
              border: 2px solid #ccc;
              padding: 16px;
              margin: 20px auto;
              border-radius: 8px;
              background-color: #ffffff;
              text-align: center;
            }
            .stimuli-image {
              display: block;
              margin: 10px auto;
              max-height: 150px;
            }
            .button-spacing {
              margin-top: 30px;
            }
          </style>

          <div style=""display: flex; align-items: center;"">
            <div style=""flex: 1; padding-right: 20px;"">
              <div class=""quote-box"">
                <p>This is called <strong>Nuv</strong>.</p>
                <img src=""stimuli/asteroid_small.png"" class=""stimuli-image"">
              </div>

              <p style=""text-align: center;"">What is this called?</p>

              <div class=""quote-box"">
                <img src=""stimuli/asteroid_large.jpg"" class=""stimuli-image"">
              </div>

              <div class=""button-spacing""></div>
            </div>

            <div style=""flex-shrink: 0; width: 180px; height: 250px; display: flex; align-items: center; justify-content: center;"">
            <img src=""interlocutor/adult_male_02_side.png"" style=""width: 100%; height: 100%; object-fit: contain;"" />
            </div>
        ","1","false","Nuvrul","Nuv","[""Nuvrik"",""Nuvrul""]","rul","male","side","false","false","true","","","",""
"","","","","","html-keyboard-response","25","129489","0.0-15.0","view","long","none","","null","<div style=""font-size: 48px;"">+</div>","null","","","","","","","","true","","","","","",""
"","","","","","survey-text","26","140487","0.0-16.0-0.0","view","long","none","","10995","","{""Q0"":""nuvrul""}","","","","","","","","","true","true","nuvrul","nuvrul","",""
"","","","","","html-button-response","27","148386","0.0-17.0-0.0","view","long","none","","7897","
          <style>
            .quote-box {
              border: 2px solid #ccc;
              padding: 16px;
              margin: 20px auto;
              border-radius: 8px;
              background-color: #ffffff;
              text-align: center;
            }
            .stimuli-image {
              display: block;
              margin: 10px auto;
              max-height: 150px;
            }
            .button-spacing {
              margin-top: 30px;
            }
          </style>

          <div style=""display: flex; align-items: center;"">
            <div style=""flex: 1; padding-right: 20px;"">
              <div class=""quote-box"">
                <p>This is called <strong>Ibo</strong>.</p>
                <img src=""stimuli/daisy_adult.png"" class=""stimuli-image"">
              </div>

              <p style=""text-align: center;"">What is this called?</p>

              <div class=""quote-box"">
                <img src=""stimuli/daisy_small.png"" class=""stimuli-image"">
              </div>

              <div class=""button-spacing""></div>
            </div>

            <div style=""flex-shrink: 0; width: 180px; height: 250px; display: flex; align-items: center; justify-content: center;"">
            <img src=""interlocutor/child_female_02_side.png"" style=""width: 100%; height: 100%; object-fit: contain;"" />
            </div>
        ","0","false","Iborul","Ibo","[""Iborik"",""Iborul""]","rul","female","side","false","false","false","","","",""
"","","","","","html-keyboard-response","28","149388","0.0-17.0-1.0-0.0","view","long","none","","null","<p style='color:red; font-size: 24px;'>Incorrect! Please try again.</p>","null","","","","","","","","","","","","","",""
"","","","","","html-button-response","29","150003","0.0-17.1-0.1","view","long","none","","613","
          <style>
            .quote-box {
              border: 2px solid #ccc;
              padding: 16px;
              margin: 20px auto;
              border-radius: 8px;
              background-color: #ffffff;
              text-align: center;
            }
            .stimuli-image {
              display: block;
              margin: 10px auto;
              max-height: 150px;
            }
            .button-spacing {
              margin-top: 30px;
            }
          </style>

          <div style=""display: flex; align-items: center;"">
            <div style=""flex: 1; padding-right: 20px;"">
              <div class=""quote-box"">
                <p>This is called <strong>Ibo</strong>.</p>
                <img src=""stimuli/daisy_adult.png"" class=""stimuli-image"">
              </div>

              <p style=""text-align: center;"">What is this called?</p>

              <div class=""quote-box"">
                <img src=""stimuli/daisy_small.png"" class=""stimuli-image"">
              </div>

              <div class=""button-spacing""></div>
            </div>

            <div style=""flex-shrink: 0; width: 180px; height: 250px; display: flex; align-items: center; justify-content: center;"">
            <img src=""interlocutor/child_female_02_side.png"" style=""width: 100%; height: 100%; object-fit: contain;"" />
            </div>
        ","1","false","Iborul","Ibo","[""Iborik"",""Iborul""]","rul","female","side","false","false","true","","","",""
"","","","","","html-keyboard-response","30","150505","0.0-18.0","view","long","none","","null","<div style=""font-size: 48px;"">+</div>","null","","","","","","","","true","","","","","",""
"","","","","","html-button-response","31","154520","0.0-19.0-0.0","view","long","none","","4013","
          <style>
            .quote-box {
              border: 2px solid #ccc;
              padding: 16px;
              margin: 20px auto;
              border-radius: 8px;
              background-color: #ffffff;
              text-align: center;
            }
            .stimuli-image {
              display: block;
              margin: 10px auto;
              max-height: 150px;
            }
            .button-spacing {
              margin-top: 30px;
            }
          </style>

          <div style=""display: flex; align-items: center;"">
            <div style=""flex: 1; padding-right: 20px;"">
              <div class=""quote-box"">
                <p>This is called <strong>Fon</strong>.</p>
                <img src=""stimuli/drawer.png"" class=""stimuli-image"">
              </div>

              <p style=""text-align: center;"">What is this called?</p>

              <div class=""quote-box"">
                <img src=""stimuli/warddrobe.jpg"" class=""stimuli-image"">
              </div>

              <div class=""button-spacing""></div>
            </div>

            <div style=""flex-shrink: 0; width: 180px; height: 250px; display: flex; align-items: center; justify-content: center;"">
            <img src=""interlocutor/adult_male.png"" style=""width: 100%; height: 100%; object-fit: contain;"" />
            </div>
        ","1","false","Fonrik","Fon","[""Fonrik"",""Fonrul""]","rik","male","front","false","false","false","","","",""
"","","","","","html-keyboard-response","32","155522","0.0-19.0-1.0-0.0","view","long","none","","null","<p style='color:red; font-size: 24px;'>Incorrect! Please try again.</p>","null","","","","","","","","","","","","","",""
"","","","","","html-button-response","33","157653","0.0-19.1-0.1","view","long","none","","2129","
          <style>
            .quote-box {
              border: 2px solid #ccc;
              padding: 16px;
              margin: 20px auto;
              border-radius: 8px;
              background-color: #ffffff;
              text-align: center;
            }
            .stimuli-image {
              display: block;
              margin: 10px auto;
              max-height: 150px;
            }
            .button-spacing {
              margin-top: 30px;
            }
          </style>

          <div style=""display: flex; align-items: center;"">
            <div style=""flex: 1; padding-right: 20px;"">
              <div class=""quote-box"">
                <p>This is called <strong>Fon</strong>.</p>
                <img src=""stimuli/drawer.png"" class=""stimuli-image"">
              </div>

              <p style=""text-align: center;"">What is this called?</p>

              <div class=""quote-box"">
                <img src=""stimuli/warddrobe.jpg"" class=""stimuli-image"">
              </div>

              <div class=""button-spacing""></div>
            </div>

            <div style=""flex-shrink: 0; width: 180px; height: 250px; display: flex; align-items: center; justify-content: center;"">
            <img src=""interlocutor/adult_male.png"" style=""width: 100%; height: 100%; object-fit: contain;"" />
            </div>
        ","0","false","Fonrik","Fon","[""Fonrik"",""Fonrul""]","rik","male","front","false","false","true","","","",""
"","","","","","html-keyboard-response","34","158155","0.0-20.0","view","long","none","","null","<div style=""font-size: 48px;"">+</div>","null","","","","","","","","true","","","","","",""
"","","","","","html-button-response","35","160403","0.0-21.0-0.0","view","long","none","","2246","
          <style>
            .quote-box {
              border: 2px solid #ccc;
              padding: 16px;
              margin: 20px auto;
              border-radius: 8px;
              background-color: #ffffff;
              text-align: center;
            }
            .stimuli-image {
              display: block;
              margin: 10px auto;
              max-height: 150px;
            }
            .button-spacing {
              margin-top: 30px;
            }
          </style>

          <div style=""display: flex; align-items: center;"">
            <div style=""flex: 1; padding-right: 20px;"">
              <div class=""quote-box"">
                <p>This is called <strong>Ked</strong>.</p>
                <img src=""stimuli/mushroom_adult_01.png"" class=""stimuli-image"">
              </div>

              <p style=""text-align: center;"">What is this called?</p>

              <div class=""quote-box"">
                <img src=""stimuli/mushroom_child_01.png"" class=""stimuli-image"">
              </div>

              <div class=""button-spacing""></div>
            </div>

            <div style=""flex-shrink: 0; width: 180px; height: 250px; display: flex; align-items: center; justify-content: center;"">
            <img src=""interlocutor/adult_male.png"" style=""width: 100%; height: 100%; object-fit: contain;"" />
            </div>
        ","0","false","Kedrik","Ked","[""Kedrik"",""Kedrul""]","rik","male","front","false","false","true","","","",""
"","","","","","html-keyboard-response","36","160905","0.0-22.0","view","long","none","","null","<div style=""font-size: 48px;"">+</div>","null","","","","","","","","true","","","","","",""
"","","","","","survey-text","37","166471","0.0-23.0-0.0","view","long","none","","5563","","{""Q0"":""kedrik""}","","","","","","","","","true","true","kedrik","kedrik","",""
"","","","","","html-button-response","38","169403","0.0-24.0-0.0","view","long","none","","2931","
          <style>
            .quote-box {
              border: 2px solid #ccc;
              padding: 16px;
              margin: 20px auto;
              border-radius: 8px;
              background-color: #ffffff;
              text-align: center;
            }
            .stimuli-image {
              display: block;
              margin: 10px auto;
              max-height: 150px;
            }
            .button-spacing {
              margin-top: 30px;
            }
          </style>

          <div style=""display: flex; align-items: center;"">
            <div style=""flex: 1; padding-right: 20px;"">
              <div class=""quote-box"">
                <p>This is called <strong>Fob</strong>.</p>
                <img src=""stimuli/bear_adult_male_01.png"" class=""stimuli-image"">
              </div>

              <p style=""text-align: center;"">What is this called?</p>

              <div class=""quote-box"">
                <img src=""stimuli/bear_child_01.png"" class=""stimuli-image"">
              </div>

              <div class=""button-spacing""></div>
            </div>

            <div style=""flex-shrink: 0; width: 180px; height: 250px; display: flex; align-items: center; justify-content: center;"">
            <img src=""interlocutor/adult_male.png"" style=""width: 100%; height: 100%; object-fit: contain;"" />
            </div>
        ","0","false","Fobrik","Fob","[""Fobrik"",""Fobrul""]","rik","male","front","false","false","true","","","",""
"","","","","","html-keyboard-response","39","169904","0.0-25.0","view","long","none","","null","<div style=""font-size: 48px;"">+</div>","null","","","","","","","","true","","","","","",""
"","","","","","html-button-response","40","173470","0.0-26.0-0.0","view","long","none","","3564","
          <style>
            .quote-box {
              border: 2px solid #ccc;
              padding: 16px;
              margin: 20px auto;
              border-radius: 8px;
              background-color: #ffffff;
              text-align: center;
            }
            .stimuli-image {
              display: block;
              margin: 10px auto;
              max-height: 150px;
            }
            .button-spacing {
              margin-top: 30px;
            }
          </style>

          <div style=""display: flex; align-items: center;"">
            <div style=""flex: 1; padding-right: 20px;"">
              <div class=""quote-box"">
                <p>This is called <strong>Yor</strong>.</p>
                <img src=""stimuli/gate_adult_01.png"" class=""stimuli-image"">
              </div>

              <p style=""text-align: center;"">What is this called?</p>

              <div class=""quote-box"">
                <img src=""stimuli/gate_child_01.png"" class=""stimuli-image"">
              </div>

              <div class=""button-spacing""></div>
            </div>

            <div style=""flex-shrink: 0; width: 180px; height: 250px; display: flex; align-items: center; justify-content: center;"">
            <img src=""interlocutor/child_female_02_side.png"" style=""width: 100%; height: 100%; object-fit: contain;"" />
            </div>
        ","1","false","Yorrul","Yor","[""Yorrik"",""Yorrul""]","rul","female","side","false","false","true","","","",""
"","","","","","html-keyboard-response","41","173973","0.0-27.0","view","long","none","","null","<div style=""font-size: 48px;"">+</div>","null","","","","","","","","true","","","","","",""
"","","","","","html-button-response","42","178087","0.0-28.0-0.0","view","long","none","","4112","
          <style>
            .quote-box {
              border: 2px solid #ccc;
              padding: 16px;
              margin: 20px auto;
              border-radius: 8px;
              background-color: #ffffff;
              text-align: center;
            }
            .stimuli-image {
              display: block;
              margin: 10px auto;
              max-height: 150px;
            }
            .button-spacing {
              margin-top: 30px;
            }
          </style>

          <div style=""display: flex; align-items: center;"">
            <div style=""flex: 1; padding-right: 20px;"">
              <div class=""quote-box"">
                <p>This is called <strong>Baj</strong>.</p>
                <img src=""stimuli/yogurt_small.jpg"" class=""stimuli-image"">
              </div>

              <p style=""text-align: center;"">What is this called?</p>

              <div class=""quote-box"">
                <img src=""stimuli/yogurt_large.png"" class=""stimuli-image"">
              </div>

              <div class=""button-spacing""></div>
            </div>

            <div style=""flex-shrink: 0; width: 180px; height: 250px; display: flex; align-items: center; justify-content: center;"">
            <img src=""interlocutor/adult_male_02_side.png"" style=""width: 100%; height: 100%; object-fit: contain;"" />
            </div>
        ","1","false","Bajrul","Baj","[""Bajrik"",""Bajrul""]","rul","male","side","false","false","true","","","",""
"","","","","","html-keyboard-response","43","178589","0.0-29.0","view","long","none","","null","<div style=""font-size: 48px;"">+</div>","null","","","","","","","","true","","","","","",""
"","","","","","survey-text","44","184938","0.0-30.0-0.0","view","long","none","","6345","","{""Q0"":""bajrul""}","","","","","","","","","true","true","bajrul","bajrul","",""
"","","","","","html-button-response","45","188220","0.0-31.0-0.0","view","long","none","","3280","
          <style>
            .quote-box {
              border: 2px solid #ccc;
              padding: 16px;
              margin: 20px auto;
              border-radius: 8px;
              background-color: #ffffff;
              text-align: center;
            }
            .stimuli-image {
              display: block;
              margin: 10px auto;
              max-height: 150px;
            }
            .button-spacing {
              margin-top: 30px;
            }
          </style>

          <div style=""display: flex; align-items: center;"">
            <div style=""flex: 1; padding-right: 20px;"">
              <div class=""quote-box"">
                <p>This is called <strong>Ola</strong>.</p>
                <img src=""stimuli/basket_small.png"" class=""stimuli-image"">
              </div>

              <p style=""text-align: center;"">What is this called?</p>

              <div class=""quote-box"">
                <img src=""stimuli/basket_large.png"" class=""stimuli-image"">
              </div>

              <div class=""button-spacing""></div>
            </div>

            <div style=""flex-shrink: 0; width: 180px; height: 250px; display: flex; align-items: center; justify-content: center;"">
            <img src=""interlocutor/child_female.png"" style=""width: 100%; height: 100%; object-fit: contain;"" />
            </div>
        ","1","false","Olarik","Ola","[""Olarik"",""Olarul""]","rik","female","front","false","false","false","","","",""
"","","","","","html-keyboard-response","46","189223","0.0-31.0-1.0-0.0","view","long","none","","null","<p style='color:red; font-size: 24px;'>Incorrect! Please try again.</p>","null","","","","","","","","","","","","","",""
"","","","","","html-button-response","47","190154","0.0-31.1-0.1","view","long","none","","928","
          <style>
            .quote-box {
              border: 2px solid #ccc;
              padding: 16px;
              margin: 20px auto;
              border-radius: 8px;
              background-color: #ffffff;
              text-align: center;
            }
            .stimuli-image {
              display: block;
              margin: 10px auto;
              max-height: 150px;
            }
            .button-spacing {
              margin-top: 30px;
            }
          </style>

          <div style=""display: flex; align-items: center;"">
            <div style=""flex: 1; padding-right: 20px;"">
              <div class=""quote-box"">
                <p>This is called <strong>Ola</strong>.</p>
                <img src=""stimuli/basket_small.png"" class=""stimuli-image"">
              </div>

              <p style=""text-align: center;"">What is this called?</p>

              <div class=""quote-box"">
                <img src=""stimuli/basket_large.png"" class=""stimuli-image"">
              </div>

              <div class=""button-spacing""></div>
            </div>

            <div style=""flex-shrink: 0; width: 180px; height: 250px; display: flex; align-items: center; justify-content: center;"">
            <img src=""interlocutor/child_female.png"" style=""width: 100%; height: 100%; object-fit: contain;"" />
            </div>
        ","0","false","Olarik","Ola","[""Olarik"",""Olarul""]","rik","female","front","false","false","true","","","",""
"","","","","","html-keyboard-response","48","190656","0.0-32.0","view","long","none","","null","<div style=""font-size: 48px;"">+</div>","null","","","","","","","","true","","","","","",""
"","","","","","html-button-response","49","193337","0.0-33.0-0.0","view","long","none","","2679","
          <style>
            .quote-box {
              border: 2px solid #ccc;
              padding: 16px;
              margin: 20px auto;
              border-radius: 8px;
              background-color: #ffffff;
              text-align: center;
            }
            .stimuli-image {
              display: block;
              margin: 10px auto;
              max-height: 150px;
            }
            .button-spacing {
              margin-top: 30px;
            }
          </style>

          <div style=""display: flex; align-items: center;"">
            <div style=""flex: 1; padding-right: 20px;"">
              <div class=""quote-box"">
                <p>This is called <strong>Mox</strong>.</p>
                <img src=""stimuli/small_boat.jpg"" class=""stimuli-image"">
              </div>

              <p style=""text-align: center;"">What is this called?</p>

              <div class=""quote-box"">
                <img src=""stimuli/large_boat.png"" class=""stimuli-image"">
              </div>

              <div class=""button-spacing""></div>
            </div>

            <div style=""flex-shrink: 0; width: 180px; height: 250px; display: flex; align-items: center; justify-content: center;"">
            <img src=""interlocutor/child_female.png"" style=""width: 100%; height: 100%; object-fit: contain;"" />
            </div>
        ","0","false","Moxrik","Mox","[""Moxrik"",""Moxrul""]","rik","female","front","false","false","true","","","",""
"","","","","","html-keyboard-response","50","193839","0.0-34.0","view","long","none","","null","<div style=""font-size: 48px;"">+</div>","null","","","","","","","","true","","","","","",""
"","","","","","html-button-response","51","196003","0.0-35.0-0.0","view","long","none","","2162","
          <style>
            .quote-box {
              border: 2px solid #ccc;
              padding: 16px;
              margin: 20px auto;
              border-radius: 8px;
              background-color: #ffffff;
              text-align: center;
            }
            .stimuli-image {
              display: block;
              margin: 10px auto;
              max-height: 150px;
            }
            .button-spacing {
              margin-top: 30px;
            }
          </style>

          <div style=""display: flex; align-items: center;"">
            <div style=""flex: 1; padding-right: 20px;"">
              <div class=""quote-box"">
                <p>This is called <strong>Hux</strong>.</p>
                <img src=""stimuli/pitcher_adult_01.png"" class=""stimuli-image"">
              </div>

              <p style=""text-align: center;"">What is this called?</p>

              <div class=""quote-box"">
                <img src=""stimuli/pitcher_child_01.png"" class=""stimuli-image"">
              </div>

              <div class=""button-spacing""></div>
            </div>

            <div style=""flex-shrink: 0; width: 180px; height: 250px; display: flex; align-items: center; justify-content: center;"">
            <img src=""interlocutor/adult_male.png"" style=""width: 100%; height: 100%; object-fit: contain;"" />
            </div>
        ","0","false","Huxrik","Hux","[""Huxrik"",""Huxrul""]","rik","male","front","false","false","true","","","",""
"","","","","","html-keyboard-response","52","196506","0.0-36.0","view","long","none","","null","<div style=""font-size: 48px;"">+</div>","null","","","","","","","","true","","","","","",""
"","","","","","survey-text","53","202521","0.0-37.0-0.0","view","long","none","","6012","","{""Q0"":""huxrik""}","","","","","","","","","true","true","huxrik","huxrik","",""
"","","","","","html-button-response","54","207737","0.0-38.0-0.0","view","long","none","","5214","
          <style>
            .quote-box {
              border: 2px solid #ccc;
              padding: 16px;
              margin: 20px auto;
              border-radius: 8px;
              background-color: #ffffff;
              text-align: center;
            }
            .stimuli-image {
              display: block;
              margin: 10px auto;
              max-height: 150px;
            }
            .button-spacing {
              margin-top: 30px;
            }
          </style>

          <div style=""display: flex; align-items: center;"">
            <div style=""flex: 1; padding-right: 20px;"">
              <div class=""quote-box"">
                <p>This is called <strong>Dan</strong>.</p>
                <img src=""stimuli/bokchoy_adult_01.png"" class=""stimuli-image"">
              </div>

              <p style=""text-align: center;"">What is this called?</p>

              <div class=""quote-box"">
                <img src=""stimuli/bokchoy_child_01.png"" class=""stimuli-image"">
              </div>

              <div class=""button-spacing""></div>
            </div>

            <div style=""flex-shrink: 0; width: 180px; height: 250px; display: flex; align-items: center; justify-content: center;"">
            <img src=""interlocutor/child_female.png"" style=""width: 100%; height: 100%; object-fit: contain;"" />
            </div>
        ","1","false","Danrik","Dan","[""Danrik"",""Danrul""]","rik","female","front","false","false","false","","","",""
"","","","","","html-keyboard-response","55","208740","0.0-38.0-1.0-0.0","view","long","none","","null","<p style='color:red; font-size: 24px;'>Incorrect! Please try again.</p>","null","","","","","","","","","","","","","",""
"","","","","","html-button-response","56","209820","0.0-38.1-0.1","view","long","none","","1079","
          <style>
            .quote-box {
              border: 2px solid #ccc;
              padding: 16px;
              margin: 20px auto;
              border-radius: 8px;
              background-color: #ffffff;
              text-align: center;
            }
            .stimuli-image {
              display: block;
              margin: 10px auto;
              max-height: 150px;
            }
            .button-spacing {
              margin-top: 30px;
            }
          </style>

          <div style=""display: flex; align-items: center;"">
            <div style=""flex: 1; padding-right: 20px;"">
              <div class=""quote-box"">
                <p>This is called <strong>Dan</strong>.</p>
                <img src=""stimuli/bokchoy_adult_01.png"" class=""stimuli-image"">
              </div>

              <p style=""text-align: center;"">What is this called?</p>

              <div class=""quote-box"">
                <img src=""stimuli/bokchoy_child_01.png"" class=""stimuli-image"">
              </div>

              <div class=""button-spacing""></div>
            </div>

            <div style=""flex-shrink: 0; width: 180px; height: 250px; display: flex; align-items: center; justify-content: center;"">
            <img src=""interlocutor/child_female.png"" style=""width: 100%; height: 100%; object-fit: contain;"" />
            </div>
        ","0","false","Danrik","Dan","[""Danrik"",""Danrul""]","rik","female","front","false","false","true","","","",""
"","","","","","html-keyboard-response","57","210322","0.0-39.0","view","long","none","","null","<div style=""font-size: 48px;"">+</div>","null","","","","","","","","true","","","","","",""
"","","","","","html-button-response","58","212636","0.0-40.0-0.0","view","long","none","","2312","
          <style>
            .quote-box {
              border: 2px solid #ccc;
              padding: 16px;
              margin: 20px auto;
              border-radius: 8px;
              background-color: #ffffff;
              text-align: center;
            }
            .stimuli-image {
              display: block;
              margin: 10px auto;
              max-height: 150px;
            }
            .button-spacing {
              margin-top: 30px;
            }
          </style>

          <div style=""display: flex; align-items: center;"">
            <div style=""flex: 1; padding-right: 20px;"">
              <div class=""quote-box"">
                <p>This is called <strong>Pib</strong>.</p>
                <img src=""stimuli/candleholder_adult_01.png"" class=""stimuli-image"">
              </div>

              <p style=""text-align: center;"">What is this called?</p>

              <div class=""quote-box"">
                <img src=""stimuli/candleholder_child_01.png"" class=""stimuli-image"">
              </div>

              <div class=""button-spacing""></div>
            </div>

            <div style=""flex-shrink: 0; width: 180px; height: 250px; display: flex; align-items: center; justify-content: center;"">
            <img src=""interlocutor/adult_male.png"" style=""width: 100%; height: 100%; object-fit: contain;"" />
            </div>
        ","0","false","Pibrik","Pib","[""Pibrik"",""Pibrul""]","rik","male","front","false","false","true","","","",""
"","","","","","html-keyboard-response","59","213139","0.0-41.0","view","long","none","","null","<div style=""font-size: 48px;"">+</div>","null","","","","","","","","true","","","","","",""
"","","","","","html-button-response","60","215437","0.0-42.0-0.0","view","long","none","","2296","
          <style>
            .quote-box {
              border: 2px solid #ccc;
              padding: 16px;
              margin: 20px auto;
              border-radius: 8px;
              background-color: #ffffff;
              text-align: center;
            }
            .stimuli-image {
              display: block;
              margin: 10px auto;
              max-height: 150px;
            }
            .button-spacing {
              margin-top: 30px;
            }
          </style>

          <div style=""display: flex; align-items: center;"">
            <div style=""flex: 1; padding-right: 20px;"">
              <div class=""quote-box"">
                <p>This is called <strong>Ara</strong>.</p>
                <img src=""stimuli/camera_large.jpg"" class=""stimuli-image"">
              </div>

              <p style=""text-align: center;"">What is this called?</p>

              <div class=""quote-box"">
                <img src=""stimuli/camera_small.jpg"" class=""stimuli-image"">
              </div>

              <div class=""button-spacing""></div>
            </div>

            <div style=""flex-shrink: 0; width: 180px; height: 250px; display: flex; align-items: center; justify-content: center;"">
            <img src=""interlocutor/child_female_02_side.png"" style=""width: 100%; height: 100%; object-fit: contain;"" />
            </div>
        ","0","false","Ararul","Ara","[""Ararik"",""Ararul""]","rul","female","side","false","false","false","","","",""
"","","","","","html-keyboard-response","61","216440","0.0-42.0-1.0-0.0","view","long","none","","null","<p style='color:red; font-size: 24px;'>Incorrect! Please try again.</p>","null","","","","","","","","","","","","","",""
"","","","","","html-button-response","62","217103","0.0-42.1-0.1","view","long","none","","662","
          <style>
            .quote-box {
              border: 2px solid #ccc;
              padding: 16px;
              margin: 20px auto;
              border-radius: 8px;
              background-color: #ffffff;
              text-align: center;
            }
            .stimuli-image {
              display: block;
              margin: 10px auto;
              max-height: 150px;
            }
            .button-spacing {
              margin-top: 30px;
            }
          </style>

          <div style=""display: flex; align-items: center;"">
            <div style=""flex: 1; padding-right: 20px;"">
              <div class=""quote-box"">
                <p>This is called <strong>Ara</strong>.</p>
                <img src=""stimuli/camera_large.jpg"" class=""stimuli-image"">
              </div>

              <p style=""text-align: center;"">What is this called?</p>

              <div class=""quote-box"">
                <img src=""stimuli/camera_small.jpg"" class=""stimuli-image"">
              </div>

              <div class=""button-spacing""></div>
            </div>

            <div style=""flex-shrink: 0; width: 180px; height: 250px; display: flex; align-items: center; justify-content: center;"">
            <img src=""interlocutor/child_female_02_side.png"" style=""width: 100%; height: 100%; object-fit: contain;"" />
            </div>
        ","1","false","Ararul","Ara","[""Ararik"",""Ararul""]","rul","female","side","false","false","true","","","",""
"","","","","","html-keyboard-response","63","217605","0.0-43.0","view","long","none","","null","<div style=""font-size: 48px;"">+</div>","null","","","","","","","","true","","","","","",""
"","","","","","survey-text","64","225637","0.0-44.0-0.0","view","long","none","","8028","","{""Q0"":""ararul""}","","","","","","","","","true","true","ararul","ararul","",""
"","","","","","instructions","65","229836","0.0-45.0","view","long","none","[{""page_index"":0,""viewing_time"":4198}]","4199","","","","","","","","","","","","","","","",""
"","","","","","html-button-response","66","236070","0.0-46.0-0.0","view","long","none","","6232","
          <style>
            .test-trial-container {
              display: flex;
              align-items: center;
              justify-content: space-between;
              margin: 0 auto;
              max-width: 900px;
            }
            .test-stimulus {
              flex: 1;
              text-align: center;
            }
            .stimulus-box {
              border: 2px solid #ccc;
              padding: 20px;
              border-radius: 10px;
              display: inline-block;
              background-color: #f9f9f9;
            }
            .stimulus-image {
              height: 200px;
              max-width: 200px;
              object-fit: contain;
            }
            .interlocutor-image {
              height: 250px;
            }
            .button-spacing {
              margin-top: 30px;
            }
          </style>

         <div class=""test-trial-container"" style=""display: flex; justify-content: center; gap: 40px; align-items: flex-start;"">

        
        <div class=""stimulus-box"">
        <img src=""teststimuli/elder.svg"" class=""stimulus-image"">
        </div>

      
        <div class=""interlocutor-box"">
        <div class=""prompt-text"">What would I call this?</div>
        <div class=""button-spacing""></div>
        <img src=""interlocutor/teen_male.png"" class=""interlocutor-image"">
        </div>

        </div>

        <div class=""button-spacing""></div>
        ","0","true","Gynrik","Gyn","[""Gynrik"",""Gynrul""]","rik","male","front","","","true","","","",""
"","","","","","html-keyboard-response","67","236573","0.0-47.0","view","long","none","","null","<div style=""font-size: 48px;"">+</div>","null","","","","","","","","true","","","","","",""
"","","","","","html-button-response","68","241753","0.0-48.0-0.0","view","long","none","","5179","
          <style>
            .test-trial-container {
              display: flex;
              align-items: center;
              justify-content: space-between;
              margin: 0 auto;
              max-width: 900px;
            }
            .test-stimulus {
              flex: 1;
              text-align: center;
            }
            .stimulus-box {
              border: 2px solid #ccc;
              padding: 20px;
              border-radius: 10px;
              display: inline-block;
              background-color: #f9f9f9;
            }
            .stimulus-image {
              height: 200px;
              max-width: 200px;
              object-fit: contain;
            }
            .interlocutor-image {
              height: 250px;
            }
            .button-spacing {
              margin-top: 30px;
            }
          </style>

         <div class=""test-trial-container"" style=""display: flex; justify-content: center; gap: 40px; align-items: flex-start;"">

        
        <div class=""stimulus-box"">
        <img src=""teststimuli/bird.svg"" class=""stimulus-image"">
        </div>

      
        <div class=""interlocutor-box"">
        <div class=""prompt-text"">What would I call this?</div>
        <div class=""button-spacing""></div>
        <img src=""interlocutor/child_male_02_side.png"" class=""interlocutor-image"">
        </div>

        </div>

        <div class=""button-spacing""></div>
        ","1","true","Telrul","Tel","[""Telrul"",""Telrik""]","rul","male","side","","","false","","","",""
"","","","","","html-keyboard-response","69","242255","0.0-49.0","view","long","none","","null","<div style=""font-size: 48px;"">+</div>","null","","","","","","","","true","","","","","",""
"","","","","","html-button-response","70","246553","0.0-50.0-0.0","view","long","none","","4296","
          <style>
            .test-trial-container {
              display: flex;
              align-items: center;
              justify-content: space-between;
              margin: 0 auto;
              max-width: 900px;
            }
            .test-stimulus {
              flex: 1;
              text-align: center;
            }
            .stimulus-box {
              border: 2px solid #ccc;
              padding: 20px;
              border-radius: 10px;
              display: inline-block;
              background-color: #f9f9f9;
            }
            .stimulus-image {
              height: 200px;
              max-width: 200px;
              object-fit: contain;
            }
            .interlocutor-image {
              height: 250px;
            }
            .button-spacing {
              margin-top: 30px;
            }
          </style>

         <div class=""test-trial-container"" style=""display: flex; justify-content: center; gap: 40px; align-items: flex-start;"">

        
        <div class=""stimulus-box"">
        <img src=""stimuli/pitcher_adult_01.png"" class=""stimulus-image"">
        </div>

      
        <div class=""interlocutor-box"">
        <div class=""prompt-text"">What would I call this?</div>
        <div class=""button-spacing""></div>
        <img src=""interlocutor/elder_female_side.png"" class=""interlocutor-image"">
        </div>

        </div>

        <div class=""button-spacing""></div>
        ","0","true","Huxrul","Hux","[""Huxrul"",""Huxrik""]","rul","female","side","","","true","","","",""
"","","","","","html-keyboard-response","71","247055","0.0-51.0","view","long","none","","null","<div style=""font-size: 48px;"">+</div>","null","","","","","","","","true","","","","","",""
"","","","","","html-button-response","72","248903","0.0-52.0-0.0","view","long","none","","1846","
          <style>
            .test-trial-container {
              display: flex;
              align-items: center;
              justify-content: space-between;
              margin: 0 auto;
              max-width: 900px;
            }
            .test-stimulus {
              flex: 1;
              text-align: center;
            }
            .stimulus-box {
              border: 2px solid #ccc;
              padding: 20px;
              border-radius: 10px;
              display: inline-block;
              background-color: #f9f9f9;
            }
            .stimulus-image {
              height: 200px;
              max-width: 200px;
              object-fit: contain;
            }
            .interlocutor-image {
              height: 250px;
            }
            .button-spacing {
              margin-top: 30px;
            }
          </style>

         <div class=""test-trial-container"" style=""display: flex; justify-content: center; gap: 40px; align-items: flex-start;"">

        
        <div class=""stimulus-box"">
        <img src=""stimuli/gate_adult_01.png"" class=""stimulus-image"">
        </div>

      
        <div class=""interlocutor-box"">
        <div class=""prompt-text"">What would I call this?</div>
        <div class=""button-spacing""></div>
        <img src=""interlocutor/child_male_02_side.png"" class=""interlocutor-image"">
        </div>

        </div>

        <div class=""button-spacing""></div>
        ","1","true","Yorrul","Yor","[""Yorrul"",""Yorrik""]","rul","male","side","","","false","","","",""
"","","","","","html-keyboard-response","73","249406","0.0-53.0","view","long","none","","null","<div style=""font-size: 48px;"">+</div>","null","","","","","","","","true","","","","","",""
"","","","","","html-button-response","74","251887","0.0-54.0-0.0","view","long","none","","2479","
          <style>
            .test-trial-container {
              display: flex;
              align-items: center;
              justify-content: space-between;
              margin: 0 auto;
              max-width: 900px;
            }
            .test-stimulus {
              flex: 1;
              text-align: center;
            }
            .stimulus-box {
              border: 2px solid #ccc;
              padding: 20px;
              border-radius: 10px;
              display: inline-block;
              background-color: #f9f9f9;
            }
            .stimulus-image {
              height: 200px;
              max-width: 200px;
              object-fit: contain;
            }
            .interlocutor-image {
              height: 250px;
            }
            .button-spacing {
              margin-top: 30px;
            }
          </style>

         <div class=""test-trial-container"" style=""display: flex; justify-content: center; gap: 40px; align-items: flex-start;"">

        
        <div class=""stimulus-box"">
        <img src=""teststimuli/horse.svg"" class=""stimulus-image"">
        </div>

      
        <div class=""interlocutor-box"">
        <div class=""prompt-text"">What would I call this?</div>
        <div class=""button-spacing""></div>
        <img src=""interlocutor/adult_male_side.png"" class=""interlocutor-image"">
        </div>

        </div>

        <div class=""button-spacing""></div>
        ","0","true","Bewrul","Bew","[""Bewrik"",""Bewrul""]","rul","male","side","","","false","","","",""
"","","","","","html-keyboard-response","75","252388","0.0-55.0","view","long","none","","null","<div style=""font-size: 48px;"">+</div>","null","","","","","","","","true","","","","","",""
"","","","","","html-button-response","76","255403","0.0-56.0-0.0","view","long","none","","3013","
          <style>
            .test-trial-container {
              display: flex;
              align-items: center;
              justify-content: space-between;
              margin: 0 auto;
              max-width: 900px;
            }
            .test-stimulus {
              flex: 1;
              text-align: center;
            }
            .stimulus-box {
              border: 2px solid #ccc;
              padding: 20px;
              border-radius: 10px;
              display: inline-block;
              background-color: #f9f9f9;
            }
            .stimulus-image {
              height: 200px;
              max-width: 200px;
              object-fit: contain;
            }
            .interlocutor-image {
              height: 250px;
            }
            .button-spacing {
              margin-top: 30px;
            }
          </style>

         <div class=""test-trial-container"" style=""display: flex; justify-content: center; gap: 40px; align-items: flex-start;"">

        
        <div class=""stimulus-box"">
        <img src=""teststimuli/tree.svg"" class=""stimulus-image"">
        </div>

      
        <div class=""interlocutor-box"">
        <div class=""prompt-text"">What would I call this?</div>
        <div class=""button-spacing""></div>
        <img src=""interlocutor/elder_female_side.png"" class=""interlocutor-image"">
        </div>

        </div>

        <div class=""button-spacing""></div>
        ","0","true","Jorrul","Jor","[""Jorrul"",""Jorrik""]","rul","female","side","","","true","","","",""
"","","","","","html-keyboard-response","77","255906","0.0-57.0","view","long","none","","null","<div style=""font-size: 48px;"">+</div>","null","","","","","","","","true","","","","","",""
"","","","","","html-button-response","78","259053","0.0-58.0-0.0","view","long","none","","3145","
          <style>
            .test-trial-container {
              display: flex;
              align-items: center;
              justify-content: space-between;
              margin: 0 auto;
              max-width: 900px;
            }
            .test-stimulus {
              flex: 1;
              text-align: center;
            }
            .stimulus-box {
              border: 2px solid #ccc;
              padding: 20px;
              border-radius: 10px;
              display: inline-block;
              background-color: #f9f9f9;
            }
            .stimulus-image {
              height: 200px;
              max-width: 200px;
              object-fit: contain;
            }
            .interlocutor-image {
              height: 250px;
            }
            .button-spacing {
              margin-top: 30px;
            }
          </style>

         <div class=""test-trial-container"" style=""display: flex; justify-content: center; gap: 40px; align-items: flex-start;"">

        
        <div class=""stimulus-box"">
        <img src=""teststimuli/bell.svg"" class=""stimulus-image"">
        </div>

      
        <div class=""interlocutor-box"">
        <div class=""prompt-text"">What would I call this?</div>
        <div class=""button-spacing""></div>
        <img src=""interlocutor/adult_female_02_side.png"" class=""interlocutor-image"">
        </div>

        </div>

        <div class=""button-spacing""></div>
        ","0","true","Mozrul","Moz","[""Mozrul"",""Mozrik""]","rul","female","side","","","true","","","",""
"","","","","","html-keyboard-response","79","259555","0.0-59.0","view","long","none","","null","<div style=""font-size: 48px;"">+</div>","null","","","","","","","","true","","","","","",""
"","","","","","html-button-response","80","262437","0.0-60.0-0.0","view","long","none","","2879","
          <style>
            .test-trial-container {
              display: flex;
              align-items: center;
              justify-content: space-between;
              margin: 0 auto;
              max-width: 900px;
            }
            .test-stimulus {
              flex: 1;
              text-align: center;
            }
            .stimulus-box {
              border: 2px solid #ccc;
              padding: 20px;
              border-radius: 10px;
              display: inline-block;
              background-color: #f9f9f9;
            }
            .stimulus-image {
              height: 200px;
              max-width: 200px;
              object-fit: contain;
            }
            .interlocutor-image {
              height: 250px;
            }
            .button-spacing {
              margin-top: 30px;
            }
          </style>

         <div class=""test-trial-container"" style=""display: flex; justify-content: center; gap: 40px; align-items: flex-start;"">

        
        <div class=""stimulus-box"">
        <img src=""teststimuli/couch.svg"" class=""stimulus-image"">
        </div>

      
        <div class=""interlocutor-box"">
        <div class=""prompt-text"">What would I call this?</div>
        <div class=""button-spacing""></div>
        <img src=""interlocutor/child_female_side.png"" class=""interlocutor-image"">
        </div>

        </div>

        <div class=""button-spacing""></div>
        ","1","true","Nixrul","Nix","[""Nixrik"",""Nixrul""]","rul","female","side","","","true","","","",""
"","","","","","html-keyboard-response","81","262938","0.0-61.0","view","long","none","","null","<div style=""font-size: 48px;"">+</div>","null","","","","","","","","true","","","","","",""
"","","","","","html-button-response","82","266769","0.0-62.0-0.0","view","long","none","","3829","
          <style>
            .test-trial-container {
              display: flex;
              align-items: center;
              justify-content: space-between;
              margin: 0 auto;
              max-width: 900px;
            }
            .test-stimulus {
              flex: 1;
              text-align: center;
            }
            .stimulus-box {
              border: 2px solid #ccc;
              padding: 20px;
              border-radius: 10px;
              display: inline-block;
              background-color: #f9f9f9;
            }
            .stimulus-image {
              height: 200px;
              max-width: 200px;
              object-fit: contain;
            }
            .interlocutor-image {
              height: 250px;
            }
            .button-spacing {
              margin-top: 30px;
            }
          </style>

         <div class=""test-trial-container"" style=""display: flex; justify-content: center; gap: 40px; align-items: flex-start;"">

        
        <div class=""stimulus-box"">
        <img src=""teststimuli/candy.svg"" class=""stimulus-image"">
        </div>

      
        <div class=""interlocutor-box"">
        <div class=""prompt-text"">What would I call this?</div>
        <div class=""button-spacing""></div>
        <img src=""interlocutor/elder_male.png"" class=""interlocutor-image"">
        </div>

        </div>

        <div class=""button-spacing""></div>
        ","0","true","Wibrik","Wib","[""Wibrul"",""Wibrik""]","rik","male","front","","","false","","","",""
"","","","","","html-keyboard-response","83","267270","0.0-63.0","view","long","none","","null","<div style=""font-size: 48px;"">+</div>","null","","","","","","","","true","","","","","",""
"","","","","","html-button-response","84","269687","0.0-64.0-0.0","view","long","none","","2415","
          <style>
            .test-trial-container {
              display: flex;
              align-items: center;
              justify-content: space-between;
              margin: 0 auto;
              max-width: 900px;
            }
            .test-stimulus {
              flex: 1;
              text-align: center;
            }
            .stimulus-box {
              border: 2px solid #ccc;
              padding: 20px;
              border-radius: 10px;
              display: inline-block;
              background-color: #f9f9f9;
            }
            .stimulus-image {
              height: 200px;
              max-width: 200px;
              object-fit: contain;
            }
            .interlocutor-image {
              height: 250px;
            }
            .button-spacing {
              margin-top: 30px;
            }
          </style>

         <div class=""test-trial-container"" style=""display: flex; justify-content: center; gap: 40px; align-items: flex-start;"">

        
        <div class=""stimulus-box"">
        <img src=""teststimuli/toothbrush.svg"" class=""stimulus-image"">
        </div>

      
        <div class=""interlocutor-box"">
        <div class=""prompt-text"">What would I call this?</div>
        <div class=""button-spacing""></div>
        <img src=""interlocutor/adult_female.png"" class=""interlocutor-image"">
        </div>

        </div>

        <div class=""button-spacing""></div>
        ","1","true","Zanrik","Zan","[""Zanrik"",""Zanrul""]","rik","female","front","","","false","","","",""
"","","","","","html-keyboard-response","85","270188","0.0-65.0","view","long","none","","null","<div style=""font-size: 48px;"">+</div>","null","","","","","","","","true","","","","","",""
"","","","","","html-button-response","86","273070","0.0-66.0-0.0","view","long","none","","2880","<p><strong>Attention Check</strong></p><p>Click the button labeled ""Right"".</p>","1","","","","","","","","","","true","","","attention-check","1"
"","","","","","html-button-response","87","277020","0.0-67.0-0.0","view","long","none","","3948","
          <style>
            .test-trial-container {
              display: flex;
              align-items: center;
              justify-content: space-between;
              margin: 0 auto;
              max-width: 900px;
            }
            .test-stimulus {
              flex: 1;
              text-align: center;
            }
            .stimulus-box {
              border: 2px solid #ccc;
              padding: 20px;
              border-radius: 10px;
              display: inline-block;
              background-color: #f9f9f9;
            }
            .stimulus-image {
              height: 200px;
              max-width: 200px;
              object-fit: contain;
            }
            .interlocutor-image {
              height: 250px;
            }
            .button-spacing {
              margin-top: 30px;
            }
          </style>

         <div class=""test-trial-container"" style=""display: flex; justify-content: center; gap: 40px; align-items: flex-start;"">

        
        <div class=""stimulus-box"">
        <img src=""teststimuli/bag.svg"" class=""stimulus-image"">
        </div>

      
        <div class=""interlocutor-box"">
        <div class=""prompt-text"">What would I call this?</div>
        <div class=""button-spacing""></div>
        <img src=""interlocutor/child_male.png"" class=""interlocutor-image"">
        </div>

        </div>

        <div class=""button-spacing""></div>
        ","1","true","Gulrik","Gul","[""Gulrik"",""Gulrul""]","rik","male","front","","","false","","","",""
"","","","","","html-keyboard-response","88","277521","0.0-68.0","view","long","none","","null","<div style=""font-size: 48px;"">+</div>","null","","","","","","","","true","","","","","",""
"","","","","","html-button-response","89","280586","0.0-69.0-0.0","view","long","none","","3063","
          <style>
            .test-trial-container {
              display: flex;
              align-items: center;
              justify-content: space-between;
              margin: 0 auto;
              max-width: 900px;
            }
            .test-stimulus {
              flex: 1;
              text-align: center;
            }
            .stimulus-box {
              border: 2px solid #ccc;
              padding: 20px;
              border-radius: 10px;
              display: inline-block;
              background-color: #f9f9f9;
            }
            .stimulus-image {
              height: 200px;
              max-width: 200px;
              object-fit: contain;
            }
            .interlocutor-image {
              height: 250px;
            }
            .button-spacing {
              margin-top: 30px;
            }
          </style>

         <div class=""test-trial-container"" style=""display: flex; justify-content: center; gap: 40px; align-items: flex-start;"">

        
        <div class=""stimulus-box"">
        <img src=""teststimuli/woman.svg"" class=""stimulus-image"">
        </div>

      
        <div class=""interlocutor-box"">
        <div class=""prompt-text"">What would I call this?</div>
        <div class=""button-spacing""></div>
        <img src=""interlocutor/adult_female_02.png"" class=""interlocutor-image"">
        </div>

        </div>

        <div class=""button-spacing""></div>
        ","0","true","Daprik","Dap","[""Daprul"",""Daprik""]","rik","female","front","","","false","","","",""
"","","","","","html-keyboard-response","90","281088","0.0-70.0","view","long","none","","null","<div style=""font-size: 48px;"">+</div>","null","","","","","","","","true","","","","","",""
"","","","","","html-button-response","91","284403","0.0-71.0-0.0","view","long","none","","3314","
          <style>
            .test-trial-container {
              display: flex;
              align-items: center;
              justify-content: space-between;
              margin: 0 auto;
              max-width: 900px;
            }
            .test-stimulus {
              flex: 1;
              text-align: center;
            }
            .stimulus-box {
              border: 2px solid #ccc;
              padding: 20px;
              border-radius: 10px;
              display: inline-block;
              background-color: #f9f9f9;
            }
            .stimulus-image {
              height: 200px;
              max-width: 200px;
              object-fit: contain;
            }
            .interlocutor-image {
              height: 250px;
            }
            .button-spacing {
              margin-top: 30px;
            }
          </style>

         <div class=""test-trial-container"" style=""display: flex; justify-content: center; gap: 40px; align-items: flex-start;"">

        
        <div class=""stimulus-box"">
        <img src=""teststimuli/sandwich.svg"" class=""stimulus-image"">
        </div>

      
        <div class=""interlocutor-box"">
        <div class=""prompt-text"">What would I call this?</div>
        <div class=""button-spacing""></div>
        <img src=""interlocutor/child_female_03.png"" class=""interlocutor-image"">
        </div>

        </div>

        <div class=""button-spacing""></div>
        ","0","true","Nixrik","Nix","[""Nixrul"",""Nixrik""]","rik","female","front","","","false","","","",""
"","","","","","html-keyboard-response","92","284906","0.0-72.0","view","long","none","","null","<div style=""font-size: 48px;"">+</div>","null","","","","","","","","true","","","","","",""
"","","","","","html-button-response","93","290653","0.0-73.0-0.0","view","long","none","","5745","
          <style>
            .test-trial-container {
              display: flex;
              align-items: center;
              justify-content: space-between;
              margin: 0 auto;
              max-width: 900px;
            }
            .test-stimulus {
              flex: 1;
              text-align: center;
            }
            .stimulus-box {
              border: 2px solid #ccc;
              padding: 20px;
              border-radius: 10px;
              display: inline-block;
              background-color: #f9f9f9;
            }
            .stimulus-image {
              height: 200px;
              max-width: 200px;
              object-fit: contain;
            }
            .interlocutor-image {
              height: 250px;
            }
            .button-spacing {
              margin-top: 30px;
            }
          </style>

         <div class=""test-trial-container"" style=""display: flex; justify-content: center; gap: 40px; align-items: flex-start;"">

        
        <div class=""stimulus-box"">
        <img src=""teststimuli/fish.svg"" class=""stimulus-image"">
        </div>

      
        <div class=""interlocutor-box"">
        <div class=""prompt-text"">What would I call this?</div>
        <div class=""button-spacing""></div>
        <img src=""interlocutor/elder_female.png"" class=""interlocutor-image"">
        </div>

        </div>

        <div class=""button-spacing""></div>
        ","1","true","Selrik","Sel","[""Selrik"",""Selrul""]","rik","female","front","","","false","","","",""
"","","","","","html-keyboard-response","94","291155","0.0-74.0","view","long","none","","null","<div style=""font-size: 48px;"">+</div>","null","","","","","","","","true","","","","","",""
"","","","","","html-button-response","95","295187","0.0-75.0-0.0","view","long","none","","4030","
          <style>
            .test-trial-container {
              display: flex;
              align-items: center;
              justify-content: space-between;
              margin: 0 auto;
              max-width: 900px;
            }
            .test-stimulus {
              flex: 1;
              text-align: center;
            }
            .stimulus-box {
              border: 2px solid #ccc;
              padding: 20px;
              border-radius: 10px;
              display: inline-block;
              background-color: #f9f9f9;
            }
            .stimulus-image {
              height: 200px;
              max-width: 200px;
              object-fit: contain;
            }
            .interlocutor-image {
              height: 250px;
            }
            .button-spacing {
              margin-top: 30px;
            }
          </style>

         <div class=""test-trial-container"" style=""display: flex; justify-content: center; gap: 40px; align-items: flex-start;"">

        
        <div class=""stimulus-box"">
        <img src=""teststimuli/cherry.svg"" class=""stimulus-image"">
        </div>

      
        <div class=""interlocutor-box"">
        <div class=""prompt-text"">What would I call this?</div>
        <div class=""button-spacing""></div>
        <img src=""interlocutor/adult_female_side.png"" class=""interlocutor-image"">
        </div>

        </div>

        <div class=""button-spacing""></div>
        ","0","true","Fumrul","Fum","[""Fumrul"",""Fumrik""]","rul","female","side","","","true","","","",""
"","","","","","html-keyboard-response","96","295689","0.0-76.0","view","long","none","","null","<div style=""font-size: 48px;"">+</div>","null","","","","","","","","true","","","","","",""
"","","","","","html-button-response","97","299137","0.0-77.0-0.0","view","long","none","","3445","
          <style>
            .test-trial-container {
              display: flex;
              align-items: center;
              justify-content: space-between;
              margin: 0 auto;
              max-width: 900px;
            }
            .test-stimulus {
              flex: 1;
              text-align: center;
            }
            .stimulus-box {
              border: 2px solid #ccc;
              padding: 20px;
              border-radius: 10px;
              display: inline-block;
              background-color: #f9f9f9;
            }
            .stimulus-image {
              height: 200px;
              max-width: 200px;
              object-fit: contain;
            }
            .interlocutor-image {
              height: 250px;
            }
            .button-spacing {
              margin-top: 30px;
            }
          </style>

         <div class=""test-trial-container"" style=""display: flex; justify-content: center; gap: 40px; align-items: flex-start;"">

        
        <div class=""stimulus-box"">
        <img src=""teststimuli/plane.svg"" class=""stimulus-image"">
        </div>

      
        <div class=""interlocutor-box"">
        <div class=""prompt-text"">What would I call this?</div>
        <div class=""button-spacing""></div>
        <img src=""interlocutor/adult_female_side.png"" class=""interlocutor-image"">
        </div>

        </div>

        <div class=""button-spacing""></div>
        ","0","true","Meyrul","Mey","[""Meyrul"",""Meyrik""]","rul","female","side","","","true","","","",""
"","","","","","html-keyboard-response","98","299638","0.0-78.0","view","long","none","","null","<div style=""font-size: 48px;"">+</div>","null","","","","","","","","true","","","","","",""
"","","","","","html-button-response","99","302920","0.0-79.0-0.0","view","long","none","","3280","
          <style>
            .test-trial-container {
              display: flex;
              align-items: center;
              justify-content: space-between;
              margin: 0 auto;
              max-width: 900px;
            }
            .test-stimulus {
              flex: 1;
              text-align: center;
            }
            .stimulus-box {
              border: 2px solid #ccc;
              padding: 20px;
              border-radius: 10px;
              display: inline-block;
              background-color: #f9f9f9;
            }
            .stimulus-image {
              height: 200px;
              max-width: 200px;
              object-fit: contain;
            }
            .interlocutor-image {
              height: 250px;
            }
            .button-spacing {
              margin-top: 30px;
            }
          </style>

         <div class=""test-trial-container"" style=""display: flex; justify-content: center; gap: 40px; align-items: flex-start;"">

        
        <div class=""stimulus-box"">
        <img src=""teststimuli/chair.svg"" class=""stimulus-image"">
        </div>

      
        <div class=""interlocutor-box"">
        <div class=""prompt-text"">What would I call this?</div>
        <div class=""button-spacing""></div>
        <img src=""interlocutor/teen_male.png"" class=""interlocutor-image"">
        </div>

        </div>

        <div class=""button-spacing""></div>
        ","0","true","Yanrik","Yan","[""Yanrul"",""Yanrik""]","rik","male","front","","","false","","","",""
"","","","","","html-keyboard-response","100","303422","0.0-80.0","view","long","none","","null","<div style=""font-size: 48px;"">+</div>","null","","","","","","","","true","","","","","",""
"","","","","","html-button-response","101","309370","0.0-81.0-0.0","view","long","none","","5946","
          <style>
            .test-trial-container {
              display: flex;
              align-items: center;
              justify-content: space-between;
              margin: 0 auto;
              max-width: 900px;
            }
            .test-stimulus {
              flex: 1;
              text-align: center;
            }
            .stimulus-box {
              border: 2px solid #ccc;
              padding: 20px;
              border-radius: 10px;
              display: inline-block;
              background-color: #f9f9f9;
            }
            .stimulus-image {
              height: 200px;
              max-width: 200px;
              object-fit: contain;
            }
            .interlocutor-image {
              height: 250px;
            }
            .button-spacing {
              margin-top: 30px;
            }
          </style>

         <div class=""test-trial-container"" style=""display: flex; justify-content: center; gap: 40px; align-items: flex-start;"">

        
        <div class=""stimulus-box"">
        <img src=""teststimuli/man.svg"" class=""stimulus-image"">
        </div>

      
        <div class=""interlocutor-box"">
        <div class=""prompt-text"">What would I call this?</div>
        <div class=""button-spacing""></div>
        <img src=""interlocutor/adult_female.png"" class=""interlocutor-image"">
        </div>

        </div>

        <div class=""button-spacing""></div>
        ","0","true","Tyrrik","Tyr","[""Tyrrik"",""Tyrrul""]","rik","female","front","","","true","","","",""
"","","","","","html-keyboard-response","102","309872","0.0-82.0","view","long","none","","null","<div style=""font-size: 48px;"">+</div>","null","","","","","","","","true","","","","","",""
"","","","","","html-button-response","103","313770","0.0-83.0-0.0","view","long","none","","3896","
          <style>
            .test-trial-container {
              display: flex;
              align-items: center;
              justify-content: space-between;
              margin: 0 auto;
              max-width: 900px;
            }
            .test-stimulus {
              flex: 1;
              text-align: center;
            }
            .stimulus-box {
              border: 2px solid #ccc;
              padding: 20px;
              border-radius: 10px;
              display: inline-block;
              background-color: #f9f9f9;
            }
            .stimulus-image {
              height: 200px;
              max-width: 200px;
              object-fit: contain;
            }
            .interlocutor-image {
              height: 250px;
            }
            .button-spacing {
              margin-top: 30px;
            }
          </style>

         <div class=""test-trial-container"" style=""display: flex; justify-content: center; gap: 40px; align-items: flex-start;"">

        
        <div class=""stimulus-box"">
        <img src=""teststimuli/corn.svg"" class=""stimulus-image"">
        </div>

      
        <div class=""interlocutor-box"">
        <div class=""prompt-text"">What would I call this?</div>
        <div class=""button-spacing""></div>
        <img src=""interlocutor/adult_male_02_side.png"" class=""interlocutor-image"">
        </div>

        </div>

        <div class=""button-spacing""></div>
        ","1","true","Lumrul","Lum","[""Lumrul"",""Lumrik""]","rul","male","side","","","false","","","",""
"","","","","","html-keyboard-response","104","314272","0.0-84.0","view","long","none","","null","<div style=""font-size: 48px;"">+</div>","null","","","","","","","","true","","","","","",""
"","","","","","html-button-response","105","320437","0.0-85.0-0.0","view","long","none","","6163","
          <style>
            .test-trial-container {
              display: flex;
              align-items: center;
              justify-content: space-between;
              margin: 0 auto;
              max-width: 900px;
            }
            .test-stimulus {
              flex: 1;
              text-align: center;
            }
            .stimulus-box {
              border: 2px solid #ccc;
              padding: 20px;
              border-radius: 10px;
              display: inline-block;
              background-color: #f9f9f9;
            }
            .stimulus-image {
              height: 200px;
              max-width: 200px;
              object-fit: contain;
            }
            .interlocutor-image {
              height: 250px;
            }
            .button-spacing {
              margin-top: 30px;
            }
          </style>

         <div class=""test-trial-container"" style=""display: flex; justify-content: center; gap: 40px; align-items: flex-start;"">

        
        <div class=""stimulus-box"">
        <img src=""teststimuli/school.svg"" class=""stimulus-image"">
        </div>

      
        <div class=""interlocutor-box"">
        <div class=""prompt-text"">What would I call this?</div>
        <div class=""button-spacing""></div>
        <img src=""interlocutor/adult_female_02.png"" class=""interlocutor-image"">
        </div>

        </div>

        <div class=""button-spacing""></div>
        ","0","true","Rivrik","Riv","[""Rivrul"",""Rivrik""]","rik","female","front","","","false","","","",""
"","","","","","html-keyboard-response","106","320939","0.0-86.0","view","long","none","","null","<div style=""font-size: 48px;"">+</div>","null","","","","","","","","true","","","","","",""
"","","","","","html-button-response","107","323619","0.0-87.0-0.0","view","long","none","","2678","<p><strong>Attention Check</strong></p><p>Click the button labeled ""Right"".</p>","1","","","","","","","","","","true","","","attention-check","1"
"","","","","","html-button-response","108","325269","0.0-88.0-0.0","view","long","none","","1650","
          <style>
            .test-trial-container {
              display: flex;
              align-items: center;
              justify-content: space-between;
              margin: 0 auto;
              max-width: 900px;
            }
            .test-stimulus {
              flex: 1;
              text-align: center;
            }
            .stimulus-box {
              border: 2px solid #ccc;
              padding: 20px;
              border-radius: 10px;
              display: inline-block;
              background-color: #f9f9f9;
            }
            .stimulus-image {
              height: 200px;
              max-width: 200px;
              object-fit: contain;
            }
            .interlocutor-image {
              height: 250px;
            }
            .button-spacing {
              margin-top: 30px;
            }
          </style>

         <div class=""test-trial-container"" style=""display: flex; justify-content: center; gap: 40px; align-items: flex-start;"">

        
        <div class=""stimulus-box"">
        <img src=""teststimuli/car.svg"" class=""stimulus-image"">
        </div>

      
        <div class=""interlocutor-box"">
        <div class=""prompt-text"">What would I call this?</div>
        <div class=""button-spacing""></div>
        <img src=""interlocutor/child_male.png"" class=""interlocutor-image"">
        </div>

        </div>

        <div class=""button-spacing""></div>
        ","1","true","Ronrik","Ron","[""Ronrik"",""Ronrul""]","rik","male","front","","","false","","","",""
"","","","","","html-keyboard-response","109","325771","0.0-89.0","view","long","none","","null","<div style=""font-size: 48px;"">+</div>","null","","","","","","","","true","","","","","",""
"","","","","","html-button-response","110","327520","0.0-90.0-0.0","view","long","none","","1747","
          <style>
            .test-trial-container {
              display: flex;
              align-items: center;
              justify-content: space-between;
              margin: 0 auto;
              max-width: 900px;
            }
            .test-stimulus {
              flex: 1;
              text-align: center;
            }
            .stimulus-box {
              border: 2px solid #ccc;
              padding: 20px;
              border-radius: 10px;
              display: inline-block;
              background-color: #f9f9f9;
            }
            .stimulus-image {
              height: 200px;
              max-width: 200px;
              object-fit: contain;
            }
            .interlocutor-image {
              height: 250px;
            }
            .button-spacing {
              margin-top: 30px;
            }
          </style>

         <div class=""test-trial-container"" style=""display: flex; justify-content: center; gap: 40px; align-items: flex-start;"">

        
        <div class=""stimulus-box"">
        <img src=""stimuli/bear_adult_male_01.png"" class=""stimulus-image"">
        </div>

      
        <div class=""interlocutor-box"">
        <div class=""prompt-text"">What would I call this?</div>
        <div class=""button-spacing""></div>
        <img src=""interlocutor/child_male_02_side.png"" class=""interlocutor-image"">
        </div>

        </div>

        <div class=""button-spacing""></div>
        ","1","true","Fobrul","Fob","[""Fobrul"",""Fobrik""]","rul","male","side","","","false","","","",""
"","","","","","html-keyboard-response","111","328021","0.0-91.0","view","long","none","","null","<div style=""font-size: 48px;"">+</div>","null","","","","","","","","true","","","","","",""
"","","","","","html-button-response","112","331403","0.0-92.0-0.0","view","long","none","","3381","
          <style>
            .test-trial-container {
              display: flex;
              align-items: center;
              justify-content: space-between;
              margin: 0 auto;
              max-width: 900px;
            }
            .test-stimulus {
              flex: 1;
              text-align: center;
            }
            .stimulus-box {
              border: 2px solid #ccc;
              padding: 20px;
              border-radius: 10px;
              display: inline-block;
              background-color: #f9f9f9;
            }
            .stimulus-image {
              height: 200px;
              max-width: 200px;
              object-fit: contain;
            }
            .interlocutor-image {
              height: 250px;
            }
            .button-spacing {
              margin-top: 30px;
            }
          </style>

         <div class=""test-trial-container"" style=""display: flex; justify-content: center; gap: 40px; align-items: flex-start;"">

        
        <div class=""stimulus-box"">
        <img src=""teststimuli/globe.svg"" class=""stimulus-image"">
        </div>

      
        <div class=""interlocutor-box"">
        <div class=""prompt-text"">What would I call this?</div>
        <div class=""button-spacing""></div>
        <img src=""interlocutor/teen_male_side.png"" class=""interlocutor-image"">
        </div>

        </div>

        <div class=""button-spacing""></div>
        ","0","true","Vekrul","Vek","[""Vekrik"",""Vekrul""]","rul","male","side","","","false","","","",""
"","","","","","html-keyboard-response","113","331905","0.0-93.0","view","long","none","","null","<div style=""font-size: 48px;"">+</div>","null","","","","","","","","true","","","","","",""
"","","","","","html-button-response","114","334520","0.0-94.0-0.0","view","long","none","","2613","
          <style>
            .test-trial-container {
              display: flex;
              align-items: center;
              justify-content: space-between;
              margin: 0 auto;
              max-width: 900px;
            }
            .test-stimulus {
              flex: 1;
              text-align: center;
            }
            .stimulus-box {
              border: 2px solid #ccc;
              padding: 20px;
              border-radius: 10px;
              display: inline-block;
              background-color: #f9f9f9;
            }
            .stimulus-image {
              height: 200px;
              max-width: 200px;
              object-fit: contain;
            }
            .interlocutor-image {
              height: 250px;
            }
            .button-spacing {
              margin-top: 30px;
            }
          </style>

         <div class=""test-trial-container"" style=""display: flex; justify-content: center; gap: 40px; align-items: flex-start;"">

        
        <div class=""stimulus-box"">
        <img src=""stimuli/bokchoy_adult_01.png"" class=""stimulus-image"">
        </div>

      
        <div class=""interlocutor-box"">
        <div class=""prompt-text"">What would I call this?</div>
        <div class=""button-spacing""></div>
        <img src=""interlocutor/elder_male.png"" class=""interlocutor-image"">
        </div>

        </div>

        <div class=""button-spacing""></div>
        ","1","true","Danrik","Dan","[""Danrik"",""Danrul""]","rik","male","front","","","false","","","",""
"","","","","","html-keyboard-response","115","335022","0.0-95.0","view","long","none","","null","<div style=""font-size: 48px;"">+</div>","null","","","","","","","","true","","","","","",""
"","","","","","survey-text","116","342172","0.0-96.0","view","long","none","","7139","","{""Q0"":""none""}","","","","","","","","","","","","","",""
